File: data/monolayers/nanoparticles/Ac_CoFe_C/vsm/Backup/AH11_300K_LangevinSAXSscaled.xye
#Executed at: 2018-11-15 13:05:41.8752
#Loaded File	 = ../rawdata/DD226_2_HYST_300K.DAT
#Rescale Factor	 = 4.49009
#[[Data]]
#B/T	M/kAm-1	sM/kAm-1	M_raw/memu	sM_raw/memu
-5.32832e-06	2.75431	1.8577	0.613418	0.413733
0.035688	58.0736	1.94865	12.9337	0.433989
0.0816037	78.3713	2.09704	17.4543	0.467038
0.12174	83.5394	1.98536	18.6053	0.442164
0.167112	85.3653	2.28942	19.0119	0.509882
0.213248	84.1095	1.78792	18.7322	0.398191
0.259594	84.8192	1.88684	18.8903	0.420224
0.305727	82.0978	2.44219	18.2842	0.543907
0.351826	82.1565	1.9344	18.2973	0.430815
0.399445	77.1475	2.2246	17.1817	0.495445
0.446131	73.2265	2.0745	16.3084	0.462016
0.494786	71.8237	2.02519	15.996	0.451036
0.539952	61.6901	2.28346	13.7392	0.508556
0.588363	63.2446	1.99704	14.0854	0.444766
0.633587	56.7376	2.59802	12.6362	0.578611
0.683056	48.3528	2.68761	10.7688	0.598564
0.731541	45.5776	2.68747	10.1507	0.598533
0.77799	40.9298	2.68698	9.11558	0.598423
0.825714	31.6385	2.54179	7.04628	0.566088
0.8717	24.4508	2.80741	5.44549	0.625245
0.918743	21.2378	1.77661	4.72991	0.395674
0.967456	13.9701	1.93015	3.11132	0.429868
1.01442	5.25989	3.12449	1.17144	0.695862
1.06465	-0.50113	3.30125	-0.111608	0.735229
1.11236	-4.25477	3.14035	-0.94759	0.699395
1.15885	-15.0441	3.49265	-3.3505	0.777858
1.20733	-22.824	3.45766	-5.08318	0.770063
1.24953	-22.8919	3.50718	-5.09831	0.781092
1.30051	-34.9479	3.58175	-7.78332	0.797702
1.34899	-42.9927	4.85412	-9.57501	1.08107
1.395	-51.3535	4.28051	-11.4371	0.953324
1.44497	-53.4643	3.59762	-11.9072	0.801235
1.49194	-61.9535	3.66178	-13.7978	0.815524
1.54115	-71.4159	3.94865	-15.9052	0.879414
1.58912	-75.9964	5.37724	-16.9253	1.19758
1.63785	-84.427	3.8214	-18.8029	0.851073
1.68783	-95.0797	3.301	-21.1754	0.735173
1.73677	-104.109	4.80661	-23.1864	1.07049
1.78681	-109.436	5.21468	-24.3727	1.16137
1.83699	-113.748	4.42871	-25.3332	0.98633
1.88148	-124.968	4.41149	-27.8318	0.982494
1.93045	-136.01	4.86296	-30.2912	1.08304
1.97843	-137.174	5.2119	-30.5503	1.16075
2.02113	-144.366	4.94748	-32.1521	1.10187
2.06962	-153.433	6.12108	-34.1714	1.36324
2.11632	-161.155	5.82064	-35.8911	1.29633
2.16383	-168.816	4.6925	-37.5974	1.04508
2.21376	-179.185	4.22967	-39.9067	0.941999
2.26454	-186.604	4.82414	-41.5591	1.0744
2.30974	-192.605	5.6691	-42.8955	1.26258
2.35901	-195.849	5.21487	-43.6179	1.16142
2.40444	-209.79	4.90192	-46.7228	1.09172
2.45418	-213.61	4.89333	-47.5735	1.08981
2.50138	-220.497	4.65014	-49.1075	1.03564
2.54863	-229.768	6.00134	-51.1722	1.33657
2.598075	-238.78	7.15308	-53.1793	1.59308
2.64306	-237.497	5.00783	-52.8935	1.11531
2.69286	-246.998	4.23144	-55.0095	0.942395
2.73959	-265.478	6.26694	-59.1252	1.39573
2.78653	-266.413	5.8402	-59.3336	1.30069
2.83428	-273.152	6.51324	-60.8345	1.45058
2.88398	-285.222	6.61705	-63.5225	1.4737
2.92872	-292.385	7.80981	-65.1179	1.73934
2.97945	-300.457	7.37873	-66.9155	1.64334
3.02215	-303.987	6.997	-67.7017	1.55832
3.0689	-312.359	8.72476	-69.5662	1.94311
3.11785	-318.202	8.17708	-70.8677	1.82114
3.16462	-324.458	5.9987	-72.2607	1.33599
3.2136	-338.347	9.44381	-75.3541	2.10326
3.2623	-343.209	6.85664	-76.4369	1.52706
3.31204	-351.005	7.2636	-78.1732	1.61769
3.35698	-356.175	7.51519	-79.3246	1.67373
3.40501	-366.924	9.98327	-81.7186	2.2234
3.45593	-376.805	8.19836	-83.9192	1.82588
3.49916	-378.702	5.43843	-84.3417	1.21121
3.5474	-388.078	7.61234	-86.4298	1.69536
3.59239	-398.738	8.2265	-88.8039	1.83215
3.63886	-396.595	6.74638	-88.3267	1.5025
3.68757	-410.584	6.45587	-91.4423	1.4378
3.73757	-422.51	8.86468	-94.0983	1.97427
3.78451	-427.669	6.26656	-95.2471	1.39564
3.83452	-434.086	5.40001	-96.6764	1.20265
3.88095	-439.265	8.33494	-97.8298	1.8563
3.92469	-453.485	6.1335	-100.997	1.36601
3.96969	-451.663	7.93247	-100.591	1.76666
4.01921	-461.078	7.62183	-102.688	1.69748
4.06763	-476.703	10.4511	-106.168	2.32759
4.11136	-479.271	6.06195	-106.74	1.35007
4.16206	-490.204	6.63643	-109.174	1.47802
4.20774	-497.29	6.56594	-110.753	1.46232
4.25755	-510.541	6.86712	-113.704	1.52939
4.30679	-512.225	9.43745	-114.079	2.10184
4.35848	-524.386	7.00395	-116.787	1.55987
4.40294	-529.621	9.91757	-117.953	2.20877
4.45218	-539.656	8.0876	-120.188	1.80121
4.49222	-539.892	9.17635	-120.241	2.04369
4.54041	-551.164	8.28045	-122.751	1.84416
4.58716	-565.033	10.2173	-125.84	2.27551
4.6336	-563.665	7.03977	-125.535	1.56785
4.68334	-577.124	7.90642	-128.533	1.76086
4.73156	-589.538	8.06661	-131.297	1.79653
4.77329	-589.248	7.39147	-131.233	1.64617
4.82377	-598.44	8.87815	-133.28	1.97727
4.87201	-615.322	10.0305	-137.04	2.23393
4.91775	-610.827	9.45391	-136.039	2.1055
4.96995	-615.789	8.94097	-137.144	1.99127
5.01691	-635.031	10.8689	-141.429	2.42065
5.06517	-647.001	8.90672	-144.095	1.98364
5.11287	-649.815	11.9099	-144.722	2.65249
5.15937	-650.301	8.56904	-144.83	1.90843
5.20634	-667.111	10.0053	-148.574	2.22831
5.25076	-673.341	10.3095	-149.961	2.29606
5.29804	-667.001	7.32326	-148.549	1.63098
5.34575	-686.64	9.48156	-152.923	2.11166
5.39448	-693.072	8.04646	-154.356	1.79205
5.44471	-696.412	10.4482	-155.1	2.32695
5.48866	-704.844	12.2455	-156.978	2.72723
5.53391	-715.766	8.6823	-159.41	1.93366
5.58212	-719.423	9.35751	-160.225	2.08403
5.6286	-722.947	10.407	-161.009	2.31777
5.67384	-746.771	10.5496	-166.315	2.34952
5.71903	-743.276	8.6021	-165.537	1.9158
5.76401	-757.364	10.6115	-168.674	2.36331
5.81655	-768.058	11.8973	-171.056	2.64967
5.86402	-769.985	12.3341	-171.485	2.74696
5.913	-777.343	10.8891	-173.124	2.42514
5.9612	-791.181	7.37884	-176.206	1.64336
6.00716	-797.907	8.54932	-177.704	1.90404
6.05489	-804.394	12.0366	-179.149	2.68069
6.10564	-802.793	7.8522	-178.792	1.74878
6.1541	-815.648	12.9066	-181.655	2.87447
6.20657	-835.504	10.1262	-186.077	2.25524
6.25161	-840.137	11.357	-187.109	2.52935
6.3001	-832.977	10.5712	-185.514	2.35435
6.34858	-857.694	14.4647	-191.019	3.22146
6.39655	-866.68	10.1893	-193.021	2.26929
6.44701	-866.773	13.2522	-193.041	2.95142
6.494	-864.341	11.2298	-192.5	2.50102
6.53923	-882.506	12.0695	-196.545	2.68803
6.58993	-892.689	10.8917	-198.813	2.42571
6.63815	-895.76	13.3777	-199.497	2.97938
6.68664	-894.212	11.7599	-199.152	2.61907
6.73239	-915.385	10.1879	-203.868	2.26897
6.77661	-927.204	13.727	-206.5	3.05718
6.82508	-922.179	11.5767	-205.381	2.57829
6.87582	-924.656	12.3558	-205.933	2.75178
6.91977	-957.513	11.8308	-213.25	2.63488
6.96926	-943.381	12.615	-210.103	2.80951
7.01647	-958.807	10.7185	-213.538	2.38715
7.06672	-976.956	8.95928	-217.58	1.99534
7.11543	-981.941	9.53624	-218.691	2.12384
7.16215	-977.224	11.6687	-217.64	2.59876
7.2094	-982.127	13.9862	-218.732	3.11491
7.25812	-994.122	10.1481	-221.403	2.2601
7.30461	-1012.89	11.9895	-225.583	2.6702
7.35309	-1002.79	11.035	-223.333	2.45763
7.40055	-1014.64	13.7623	-225.973	3.06503
7.44529	-1033.4	13.0874	-230.151	2.91473
7.49578	-1029.76	13.9679	-229.34	3.11082
7.54299	-1055.37	13.6251	-235.044	3.03447
7.58728	-1060.9	16.7059	-236.276	3.7206
7.63674	-1057.96	16.0679	-235.621	3.57851
7.68546	-1057.86	13.1279	-235.599	2.92375
7.73321	-1074.86	11.7847	-239.384	2.6246
7.7827	-1095.59	12.5042	-244.001	2.78484
7.82887	-1098.14	12.565	-244.571	2.79838
7.88138	-1094.81	12.9114	-243.828	2.87554
7.93507	-1099.93	14.331	-244.969	3.1917
7.98158	-1113.41	14.2908	-247.971	3.18274
8.03162	-1126.96	14.7752	-250.987	3.29062
8.08008	-1135.24	12.2444	-252.832	2.72699
8.12758	-1134.92	13.511	-252.76	3.00907
8.1773	-1165.48	14.9517	-259.566	3.32993
8.22279	-1169.73	11.8665	-260.514	2.64283
8.274	-1157.65	12.906	-257.824	2.87433
8.32371	-1156.35	14.4509	-257.534	3.21839
8.3667	-1179.58	12.1214	-262.708	2.69959
8.41645	-1184.56	12.1324	-263.817	2.70204
8.46166	-1187.08	12.392	-264.379	2.75986
8.51041	-1207.16	16.6925	-268.849	3.71763
8.55941	-1225.42	15.9758	-272.916	3.55801
8.60412	-1215.34	13.7389	-270.672	3.05983
8.65186	-1233.18	12.2119	-274.646	2.71974
8.69857	-1250.14	16.8147	-278.421	3.74485
8.74158	-1232.33	11.1636	-274.455	2.48627
8.78982	-1259.47	12.4103	-280.5	2.76393
8.83627	-1266.77	14.5545	-282.125	3.24146
8.88175	-1255.81	13.3872	-279.684	2.98149
8.92822	-1267.35	16.8258	-282.254	3.74732
8.97124	-1288.94	13.1265	-287.063	2.92343
8.98701	-1285.62	12.6509	-286.325	2.81752
8.93744	-1277.62	13.5299	-284.543	3.01327
8.89476	-1272.27	15.069	-283.351	3.35605
8.84655	-1280.1	15.8789	-285.093	3.53642
8.80282	-1248.9	11.1268	-278.146	2.47808
8.75834	-1245.15	15.2697	-277.31	3.40076
8.71161	-1239.59	12.8701	-276.072	2.86633
8.66614	-1221.29	13.4574	-271.997	2.99713
8.61664	-1219.16	16.5897	-271.522	3.69474
8.57295	-1228.93	14.9994	-273.698	3.34056
8.5287	-1199.13	10.7098	-267.06	2.38521
8.48693	-1208.66	13.622	-269.184	3.03378
8.44444	-1191.35	14.1237	-265.329	3.14553
8.39493	-1180.01	13.1952	-262.802	2.93873
8.34624	-1175.99	12.4215	-261.909	2.76642
8.29998	-1165.34	15.3666	-259.536	3.42233
8.255	-1158.86	12.2655	-258.092	2.73167
8.20578	-1157.5	13.0856	-257.79	2.91434
8.1588	-1148.62	12.958	-255.813	2.8859
8.11007	-1133.3	13.0007	-252.399	2.89541
8.06086	-1122.2	13.5271	-249.928	3.01264
8.01127	-1116.77	13.3701	-248.718	2.97769
7.96329	-1113.37	8.84956	-247.961	1.97091
7.91558	-1092.64	10.3626	-243.345	2.30788
7.86862	-1091.83	14.3852	-243.164	3.20376
7.82107	-1090.73	14.3871	-242.919	3.2042
7.77389	-1082.78	13.8802	-241.148	3.09131
7.7284	-1081.5	12.2937	-240.863	2.73796
7.67718	-1072.6	11.5079	-238.881	2.56294
7.63219	-1059.92	11.04	-236.057	2.45874
7.59419	-1044.82	14.2757	-232.694	3.17938
7.55866	-1039.18	14.0761	-231.438	3.13491
7.51539	-1049.08	11.5111	-233.644	2.56366
7.465675	-1032.74	9.67499	-230.004	2.15474
7.41918	-1019.2	15.3373	-226.989	3.4158
7.37221	-1024.86	13.8981	-228.248	3.09529
7.32577	-1016.82	14.5518	-226.458	3.24088
7.28101	-998.468	10.266	-222.371	2.28637
7.23506	-996.326	13.5504	-221.894	3.01785
7.18681	-996.895	12.7405	-222.021	2.83746
7.14007	-973.373	11.5389	-216.782	2.56985
7.09406	-968.902	11.4532	-215.787	2.55078
7.04637	-977.564	13.788	-217.716	3.07076
6.99767	-948.472	13.306	-211.237	2.9634
6.94856	-942.12	12.6856	-209.822	2.82525
6.90544	-946.082	9.83176	-210.704	2.18965
6.85617	-927.815	10.4751	-206.636	2.33293
6.8072	-913.525	13.5495	-203.453	3.01764
6.759	-909.749	12.7443	-202.612	2.83831
6.71102	-926.558	14.208	-206.356	3.1643
6.66276	-914.837	13.1284	-203.746	2.92385
6.61481	-892.371	11.9324	-198.742	2.65749
6.56656	-886.192	11.5079	-197.366	2.56295
6.51832	-891.325	11.571	-198.509	2.57701
6.47536	-856.443	11.4879	-190.741	2.5585
6.42987	-870.897	10.7301	-193.96	2.38973
6.37942	-852.942	9.42477	-189.961	2.09901
6.33594	-834.516	13.5622	-185.857	3.02046
6.28747	-831.562	13.6569	-185.199	3.04155
6.23742	-833.093	10.3253	-185.54	2.29958
6.19141	-826.074	10.95	-183.977	2.4387
6.14193	-814.578	11.5076	-181.417	2.56289
6.09399	-806.61	8.69765	-179.642	1.93708
6.04677	-798.378	10.1496	-177.809	2.26045
5.99973	-790.441	10.1891	-176.041	2.26925
5.95333	-771.293	8.9907	-171.777	2.00234
5.9046	-780.447	8.94737	-173.815	1.99269
5.85862	-774.967	8.96885	-172.595	1.99748
5.81662	-754.957	10.6605	-168.138	2.37423
5.77185	-756.86	8.15993	-168.562	1.81732
5.72561	-737.476	12.2902	-164.245	2.73718
5.68212	-737.397	9.1941	-164.228	2.04764
5.63341	-732.415	9.04698	-163.118	2.01488
5.58646	-723.411	10.4269	-161.113	2.3222
5.53999	-715.985	11.2354	-159.459	2.50227
5.49175	-714.19	11.2888	-159.059	2.51416
5.44683	-697.495	7.73915	-155.341	1.7236
5.39927	-695.971	8.81313	-155.001	1.96279
5.35281	-689.793	12.031	-153.625	2.67945
5.30606	-677.161	8.19363	-150.812	1.82482
5.25684	-667.844	8.01218	-148.737	1.78441
5.2104	-658.822	10.6167	-146.728	2.36448
5.16367	-652.287	9.64965	-145.272	2.1491
5.11593	-629.774	10.4018	-140.259	2.31662
5.07143	-644.043	8.06482	-143.436	1.79614
5.02174	-631.495	6.31782	-140.642	1.40706
4.97579	-616.28	7.19398	-137.253	1.60219
4.93379	-621.307	8.14141	-138.373	1.81319
4.88504	-613.227	8.09238	-136.573	1.80227
4.84055	-603.716	10.3556	-134.455	2.30631
4.7911	-589.094	8.99148	-131.199	2.00251
4.74736	-585.497	7.80402	-130.398	1.73805
4.70441	-579.089	8.28173	-128.97	1.84444
4.65395	-565.421	8.10058	-125.926	1.8041
4.60772	-562.728	8.66942	-125.326	1.93079
4.56199	-555.741	9.04515	-123.77	2.01447
4.51426	-544.509	7.92951	-121.269	1.766
4.46804	-545.966	8.06162	-121.594	1.79542
4.41849	-529.451	9.34418	-117.915	2.08107
4.3735	-523.564	5.91974	-116.604	1.3184
4.32531	-519.863	5.81217	-115.78	1.29444
4.27709	-511.195	6.53924	-113.849	1.45637
4.23212	-503.466	6.93732	-112.128	1.54503
4.18565	-499.571	6.9838	-111.261	1.55538
4.13768	-494.226	8.7291	-110.07	1.94408
4.08997	-474.034	7.83188	-105.573	1.74426
4.03948	-465.437	6.74924	-103.659	1.50314
3.99272	-466.276	7.31119	-103.845	1.62829
3.94497	-459.407	7.49211	-102.316	1.66859
3.89523	-442.281	8.98465	-98.5016	2.00099
3.8478	-439.111	5.78992	-97.7955	1.28949
3.79834	-428.685	7.29162	-95.4734	1.62393
3.75212	-416.25	5.81309	-92.704	1.29465
3.70489	-407.41	6.87818	-90.7352	1.53186
3.65568	-398.891	6.23933	-88.838	1.38958
3.60944	-396.399	6.19983	-88.283	1.38078
3.56372	-390.407	6.75016	-86.9485	1.50334
3.51475	-380.588	6.50414	-84.7618	1.44855
3.46877	-380.336	6.73879	-84.7056	1.50081
3.42108	-368.776	7.54873	-82.131	1.6812
3.37332	-362.447	5.60861	-80.7215	1.24911
3.32711	-354.549	5.46385	-78.9625	1.21687
3.28237	-349.486	6.83783	-77.8348	1.52287
3.24189	-340.355	5.62427	-75.8013	1.25259
3.19344	-334.595	6.64072	-74.5185	1.47897
3.14846	-323.387	5.58073	-72.0223	1.2429
3.0997	-315.012	6.21774	-70.1571	1.38477
3.0495	-308.277	5.65213	-68.6572	1.2588
3.00229	-300.269	5.7837	-66.8737	1.2881
2.95403	-290.76	6.45919	-64.7559	1.43854
2.90406	-283.882	5.73504	-63.2241	1.27727
2.85909	-278.73	5.60942	-62.0767	1.24929
2.80962	-271.66	4.66642	-60.5021	1.03927
2.76218	-256.917	6.42514	-57.2187	1.43096
2.71547	-257.549	5.34178	-57.3594	1.18968
2.6664	-246.091	5.09233	-54.8077	1.13413
2.61869	-236.735	5.43755	-52.7239	1.21101
2.57247	-231.112	4.6801	-51.4715	1.04232
2.52422	-223.893	5.60213	-49.8637	1.24766
2.47877	-217.497	5.18673	-48.4392	1.15515
2.43357	-206.607	5.39185	-46.0139	1.20083
2.38934	-200.149	4.40229	-44.5757	0.980446
2.34186	-194.508	3.97472	-43.3193	0.88522
2.29187	-187.819	4.0813	-41.8296	0.908956
2.24267	-179.076	4.96289	-39.8825	1.1053
2.19462	-175.929	3.97701	-39.1816	0.885729
2.14561	-163.44	3.77746	-36.4001	0.841288
2.09922	-157.54	4.21908	-35.0861	0.939641
2.05523	-146.652	4.47677	-32.6613	0.997034
2.009	-141.413	5.06154	-31.4944	1.12727
1.96408	-136.792	4.56345	-30.4654	1.01634
1.91682	-130.021	4.65327	-28.9572	1.03634
1.86986	-119.758	4.42092	-26.6716	0.984595
1.82264	-112.481	3.27681	-25.0508	0.729787
1.77441	-108.673	4.77857	-24.2027	1.06425
1.7304	-101.591	3.99474	-22.6255	0.889678
1.68168	-95.1042	3.83912	-21.1809	0.855021
1.63472	-83.1561	3.90661	-18.5199	0.870051
1.58825	-78.5288	4.23575	-17.4893	0.943353
1.5378	-65.7107	4.58013	-14.6346	1.02005
1.49007	-63.3597	3.33368	-14.111	0.742453
1.43938	-58.2498	4.02217	-12.973	0.895786
1.3939	-49.2916	3.69871	-10.9778	0.823749
1.34466	-40.1437	4.92876	-8.94049	1.0977
1.29965	-35.9194	3.30196	-7.9997	0.735387
1.25296	-27.4282	3.17536	-6.1086	0.707192
1.20523	-20.4319	2.47985	-4.55044	0.552293
1.15675	-11.6441	2.91156	-2.59329	0.648441
1.10905	-5.92435	2.70618	-1.31943	0.6027
1.06181	-1.75728	2.38759	-0.391367	0.531746
1.01334	9.01864	2.82382	2.00856	0.6289
0.965392	12.526	1.94346	2.78969	0.432832
0.917136	23.1585	2.15624	5.1577	0.480222
0.874607	26.9149	2.39628	5.99429	0.533682
0.823635	35.3888	2.01091	7.88153	0.447856
0.77943	37.0271	2.14514	8.2464	0.47775
0.738439	43.7817	2.36571	9.75073	0.526873
0.688483	48.3822	2.83906	10.7753	0.632295
0.640492	54.58	2.044	12.1556	0.455224
0.594257	59.3653	2.5848	13.2214	0.575666
0.545785	66.2609	2.19087	14.7571	0.487935
0.499822	70.0884	2.15632	15.6096	0.480238
0.457595	75.7334	2.42587	16.8668	0.540273
0.411312	80.0602	1.58312	17.8304	0.352581
0.363846	79.7004	2.15501	17.7503	0.479948
0.317615	83.6978	1.75949	18.6405	0.391861
0.274101	84.2281	2.15819	18.7587	0.480656
0.232403	86.3686	1.82447	19.2354	0.406331
0.184169	87.5643	1.48856	19.5017	0.33152
0.146137	87.2213	1.81663	19.4253	0.404586
0.0964106	83.7094	1.71695	18.6431	0.382386
0.0539267	75.9726	2.00637	16.9201	0.446843
0.00845637	39.3672	1.87427	8.76756	0.417424
-0.0357672	-49.667	1.87087	-11.0615	0.416666
-0.08392	-68.9422	2.15704	-15.3543	0.480399
-0.127266	-78.5281	1.95799	-17.4892	0.436069
-0.170656	-82.7084	2.07549	-18.4202	0.462238
-0.215041	-80.3331	1.95182	-17.8912	0.434695
-0.257435	-82.3959	1.97002	-18.3506	0.438747
-0.30412	-81.4483	2.22432	-18.1395	0.495383
-0.346642	-80.4835	2.13175	-17.9247	0.474767
-0.394677	-74.9395	2.27253	-16.69	0.50612
-0.439455	-72.0059	2.6076	-16.0366	0.580745
-0.485466	-69.5638	2.10897	-15.4927	0.469694
-0.534962	-65.6542	2.14657	-14.622	0.478068
-0.580704	-60.3565	2.1638	-13.4422	0.481905
-0.628162	-54.2454	2.2458	-12.0811	0.500167
-0.674402	-48.7976	2.3473	-10.8678	0.522772
-0.7206375	-45.969	2.44748	-10.2379	0.545084
-0.772614	-37.1028	2.36408	-8.26326	0.52651
-0.817064	-32.6417	2.09027	-7.2697	0.46553
-0.864563	-25.9064	2.13168	-5.76968	0.474751
-0.911114	-20.1875	2.19108	-4.49602	0.48798
-0.955849	-12.5992	2.69783	-2.806	0.600841
-1.00556	-5.51452	2.49735	-1.22815	0.55619
-1.05552	2.10427	2.36579	0.468646	0.526892
-1.1025	5.42779	2.95571	1.20884	0.658273
-1.14923	13.4196	3.19288	2.98871	0.711094
-1.19645	18.9865	3.44916	4.22853	0.76817
-1.24318	26.5586	3.55205	5.91493	0.791086
-1.29115	34.8617	3.34112	7.76414	0.74411
-1.3384	40.0635	3.65953	8.92265	0.815022
-1.38539	45.4929	4.25807	10.1318	0.948325
-1.43239	52.6725	3.47418	11.7308	0.773743
-1.4801	64.4201	3.62884	14.3472	0.808187
-1.5288	70.9305	3.65418	15.7971	0.813832
-1.57003	75.6078	4.03075	16.8388	0.897699
-1.61951	86.9155	4.50191	19.3572	1.00263
-1.66348	88.7685	4.15242	19.7698	0.924796
-1.71267	99.0365	4.15682	22.0567	0.925776
-1.75866	103.479	4.47964	23.0461	0.997671
-1.80562	110.56	4.2499	24.6232	0.946505
-1.85439	122.873	4.83065	27.3654	1.07585
-1.90334	129.063	4.45689	28.744	0.992605
-1.94957	134.342	4.02166	29.9197	0.895675
-1.99553	136.917	3.82758	30.4932	0.852451
-2.04501	148.221	4.30467	33.0106	0.958703
-2.09447	155.265	5.30094	34.5795	1.18059
-2.14017	162.381	4.3222	36.1643	0.962608
-2.18464	170.786	4.59216	38.0363	1.02273
-2.2334	181.451	5.01002	40.4115	1.11579
-2.2794	187.547	4.9844	41.7691	1.11009
-2.32935	199.119	5.36346	44.3464	1.19451
-2.37957	202.239	5.38447	45.0412	1.19919
-2.42825	207.682	5.78887	46.2533	1.28925
-2.47523	211.355	4.58431	47.0715	1.02098
-2.52571	226.277	5.50111	50.3947	1.22517
-2.57467	235.308	5.49085	52.406	1.22288
-2.62241	240.103	5.89578	53.474	1.31306
-2.66463	245.003	5.10599	54.5653	1.13717
-2.71316	252.141	5.27823	56.155	1.17553
-2.75964	265.573	5.38988	59.1464	1.20039
-2.80762	272.121	5.53921	60.6047	1.23365
-2.85809	277.776	5.26945	61.8643	1.17357
-2.90554	286.347	6.66079	63.773	1.48344
-2.951	288.44	6.50663	64.2391	1.44911
-2.99948	304.241	5.012	67.7584	1.11624
-3.04795	310.633	5.49084	69.1819	1.22288
-3.09294	308.445	6.22806	68.6945	1.38707
-3.14292	322.886	5.81973	71.9108	1.29613
-3.1894	331.02	7.03786	73.7223	1.56742
-3.2376	340.492	5.48175	75.8317	1.22085
-3.27931	343.504	5.49587	76.5027	1.224
-3.32358	357.282	6.18251	79.5711	1.37692
-3.3735	356.745	6.17764	79.4516	1.37584
-3.42073	366.343	5.67906	81.5892	1.2648
-3.47144	373.537	7.1693	83.1914	1.59669
-3.51713	385.797	5.79018	85.9218	1.28955
-3.56364	392.143	4.87112	87.3352	1.08486
-3.60862	398.881	7.95766	88.8357	1.77227
-3.65383	409.031	7.39643	91.0964	1.64728
-3.7033	412.167	7.35	91.7947	1.63694
-3.75329	417.978	6.99773	93.0888	1.55848
-3.80001	425.714	6.60917	94.8118	1.47194
-3.84448	439.985	7.57987	97.9901	1.68813
-3.88871	444.547	7.05295	99.0063	1.57078
-3.93341	457.874	8.60325	101.974	1.91605
-3.9829	461.529	6.27639	102.788	1.39783
-4.02913	464.259	8.10693	103.396	1.80552
-4.07263	473.754	6.99916	105.511	1.5588
-4.11834	481.013	6.50086	107.128	1.44782
-4.16407	481.544	6.94141	107.246	1.54594
-4.2143	494.965	8.42668	110.235	1.87673
-4.25726	504.676	8.53797	112.398	1.90151
-4.30497	507.892	7.17949	113.114	1.59896
-4.3549	509.41	8.65053	113.452	1.92658
-4.40389	527.958	7.46086	117.583	1.66163
-4.45138	533.647	6.05236	118.85	1.34794
-4.50167	539.743	9.04612	120.207	2.01468
-4.54416	545.399	7.14883	121.467	1.59213
-4.59283	564.352	11.2564	125.688	2.50695
-4.64058	567.599	8.55391	126.411	1.90506
-4.68727	570.014	8.67268	126.949	1.93151
-4.73776	584.734	7.67072	130.228	1.70836
-4.78601	587.909	9.07346	130.935	2.02077
-4.83221	592.889	8.00728	132.044	1.78332
-4.88216	601.468	9.21103	133.954	2.05141
-4.92793	611.575	8.64519	136.205	1.92539
-4.97768	614.161	9.4076	136.781	2.09519
-5.02859	626.596	8.6902	139.551	1.93542
-5.07583	643.386	9.44395	143.29	2.10329
-5.12231	641.056	9.17494	142.771	2.04337
-5.16601	650.245	7.9056	144.818	1.76068
-5.21675	653.308	8.93342	145.5	1.98958
-5.26544	669.875	9.51406	149.189	2.1189
-5.31015	678.543	9.37967	151.12	2.08897
-5.35864	679.357	8.33163	151.301	1.85556
-5.4066	691.972	9.44654	154.111	2.10386
-5.45509	704.382	10.8899	156.875	2.42532
-5.5058	701.209	8.61815	156.168	1.91937
-5.55778	716.599	9.68655	159.596	2.15732
-5.60552	728.198	11.0533	162.179	2.46171
-5.65547	737.187	11.1368	164.181	2.4803
-5.70267	742.117	9.69386	165.279	2.15894
-5.75291	742.08	10.6091	165.27	2.36278
-5.80288	748.313	9.34611	166.659	2.0815
-5.85162	767.387	9.34812	170.907	2.08194
-5.89808	771.683	6.8222	171.863	1.51939
-5.9458	773.018	11.1718	172.161	2.48809
-5.99602	785.871	11.3367	175.023	2.52481
-6.04522	796.299	10.9971	177.346	2.4492
-6.09696	805.744	10.8384	179.449	2.41384
-6.14345	806.464	10.6269	179.609	2.36674
-6.1954	814.59	10.537	181.419	2.34672
-6.24417	824.756	11.9919	183.683	2.67075
-6.29517	843.811	10.7764	187.927	2.40004
-6.33962	835.04	9.55199	185.974	2.12735
-6.38333	849.379	11.0368	189.167	2.45804
-6.43606	858.658	11.7348	191.234	2.61348
-6.48579	877.384	9.97318	195.404	2.22115
-6.52824	857.158	9.86218	190.9	2.19643
-6.57772	882.271	11.4562	196.493	2.55144
-6.62666	897.673	12.5604	199.923	2.79735
-6.6714	889.368	10.6545	198.073	2.3729
-6.71691	892.753	8.73959	198.827	1.94642
-6.76313	915.181	11.6488	203.822	2.59432
-6.80885	913.381	12.19	203.421	2.71487
-6.85584	930.836	9.90752	207.309	2.20653
-6.90479	942.464	13.6955	209.899	3.05017
-6.95249	941.207	12.3096	209.619	2.7415
-6.99146	948.845	12.1704	211.32	2.71051
-7.04391	964.508	11.5142	214.808	2.56436
-7.09364	978.714	11.3814	217.972	2.53478
-7.13988	972.897	11.9364	216.676	2.65839
-7.18834	984.737	10.8956	219.313	2.42658
-7.23656	989.716	9.46594	220.422	2.10818
-7.28602	996.953	12.081	222.034	2.6906
-7.33574	999.523	13.9841	222.606	3.11444
-7.38548	1009.56	10.8554	224.841	2.41763
-7.43493	1029.02	11.9494	229.175	2.66128
-7.4819	1022.81	12.6601	227.794	2.81956
-7.530825	1021.83	12.4071	227.575	2.76322
-7.58009	1046.4	11.8116	233.046	2.6306
-7.62935	1045.04	13.057	232.743	2.90796
-7.6768	1057.89	9.90854	235.606	2.20676
-7.72576	1080.68	12.7552	240.682	2.84074
-7.77174	1068.76	13.2838	238.026	2.95846
-7.82194	1076.75	11.9624	239.806	2.66417
-7.87242	1096.87	11.2851	244.287	2.51334
-7.91488	1103.11	12.36	245.677	2.75272
-7.96885	1110.44	14.4509	247.309	3.2184
-8.01983	1113.39	13.8658	247.965	3.08809
-8.06435	1129.9	12.4928	251.643	2.7823
-8.114075	1136.54	9.60079	253.121	2.13822
-8.16278	1136.3	14.0885	253.068	3.13768
-8.20677	1133.26	12.9093	252.391	2.87506
-8.25672	1152.57	12.5987	256.692	2.8059
-8.30117	1155.84	14.292	257.42	3.18301
-8.35064	1150.16	11.4995	256.155	2.56109
-8.40061	1177.11	12.5083	262.156	2.78575
-8.44633	1192.05	12.0842	265.485	2.6913
-8.48885	1191.94	11.1545	265.459	2.48425
-8.52707	1205.39	11.4518	268.455	2.55045
-8.576275	1198.77	11.6621	266.981	2.59729
-8.62423	1203.59	14.077	268.055	3.13513
-8.66695	1234.41	14.0713	274.918	3.13386
-8.71141	1226.61	13.1016	273.181	2.9179
-8.75692	1229.56	11.1499	273.839	2.48323
-8.80433	1238.31	13.1218	275.787	2.92239
-8.84877	1231.69	15.0895	274.313	3.36062
-8.8963	1268.55	11.5435	282.521	2.57089
-8.94225	1268.99	14.4188	282.619	3.21124
-8.98722	1265.69	15.7572	281.886	3.50933
-8.97235	1261.42	15.7373	280.934	3.5049
-8.92644	1271.28	19.0561	283.129	4.24404
-8.88302	1258.01	10.7505	280.175	2.39426
-8.8363	1242.14	16.5963	276.64	3.6962
-8.79186	1247.49	11.6763	277.832	2.60046
-8.74638	1232.75	13.9606	274.548	3.1092
-8.69917	1217.37	15.1536	271.123	3.3749
-8.65346	1230.4	14.2215	274.025	3.1673
-8.60676	1211.66	11.8443	269.852	2.63786
-8.5588	1203.27	13.3148	267.984	2.96537
-8.51456	1205.48	14.9375	268.475	3.32676
-8.46481	1188.21	12.3796	264.63	2.75709
-8.42158	1171.5	13.6303	260.907	3.03564
-8.37134	1168.84	11.2555	260.315	2.50673
-8.32294	1175.06	13.8177	261.701	3.07738
-8.27468	1171.43	15.3485	260.893	3.41831
-8.22347	1139.96	14.9556	253.883	3.3308
-8.17697	1149.39	16.1612	255.983	3.5993
-8.12905	1139.9	14.0405	253.869	3.127
-8.07654	1134.77	12.5765	252.728	2.80095
-8.02732	1112.11	15.5722	247.68	3.46811
-7.97858	1106.51	13.5182	246.434	3.01067
-7.92585	1085.43	12.2888	241.74	2.73686
-7.88115	1100.17	13.4173	245.023	2.98819
-7.82991	1088.49	11.75	242.421	2.61687
-7.78169	1070.58	10.6653	238.432	2.37529
-7.73124	1058.41	11.16	235.721	2.48548
-7.67984	1065.95	13.9484	237.401	3.10647
-7.62855	1061.5	11.8349	236.408	2.63578
-7.58307	1043.94	11.5941	232.498	2.58214
-7.53307	1038.24	11.6223	231.228	2.58844
-7.48886	1038.63	12.7327	231.315	2.83574
-7.43821	1028.85	12.2139	229.139	2.7202
-7.39095	1012.12	11.9138	225.412	2.65336
-7.34624	997.737	13.9305	222.209	3.10249
-7.29848	1015.23	13.9215	226.105	3.10048
-7.25246	994.623	12.1742	221.515	2.71135
-7.2053	984.803	9.735	219.328	2.16811
-7.15606	973.48	11.9296	216.806	2.65688
-7.10609	974.688	11.4526	217.075	2.55064
-7.05761	964.982	9.06387	214.914	2.01864
-7.00716	942.264	10.7157	209.854	2.38652
-6.96095	938.656	10.0505	209.051	2.23837
-6.9105	934.612	10.6055	208.15	2.36198
-6.8615	929.104	10.7302	206.923	2.38974
-6.80979	916.785	8.55023	204.179	1.90424
-6.76185	902.457	12.0773	200.988	2.68975
-6.7124	895.813	10.0357	199.509	2.23507
-6.66336	901.515	10.0532	200.779	2.23898
-6.61585	879.662	12.2809	195.912	2.73512
-6.56469	872.595	11.9579	194.338	2.66317
-6.51545	870.384	11.9986	193.845	2.67224
-6.4655	864.288	10.9127	192.488	2.4304
-6.41602	857.735	9.93355	191.028	2.21232
-6.36631	840.865	10.4295	187.271	2.32278
-6.31658	831.155	10.2195	185.109	2.27601
-6.27187	837.551	10.6332	186.533	2.36814
-6.22259	825.661	11.1973	183.885	2.49377
-6.17134	808.319	9.43507	180.023	2.10131
-6.12665	802.106	10.4927	178.639	2.33685
-6.07495	796.167	9.27518	177.316	2.0657
-6.02647	796.67	8.39786	177.428	1.87031
-5.98149	778.754	11.058	173.438	2.46275
-5.93052	771.385	10.5457	171.797	2.34866
-5.88231	767.014	9.00772	170.824	2.00613
-5.83259	767.081	9.15118	170.838	2.03808
-5.78109	744.528	9.38922	165.816	2.0911
-5.73387	746.176	9.71415	166.183	2.16346
-5.68813	738.879	9.80532	164.558	2.18377
-5.63771	725.986	8.63939	161.686	1.9241
-5.59321	715.811	9.84589	159.42	2.1928
-5.54528	721.256	9.98724	160.633	2.22428
-5.49627	712.146	11.3077	158.604	2.51836
-5.45032	698.231	8.29018	155.505	1.84633
-5.40086	687.623	9.13637	153.142	2.03478
-5.35461	682.556	9.564	152.014	2.13002
-5.30462	675.15	10.9591	150.364	2.44073
-5.2584	663.321	9.93351	147.73	2.21232
-5.21321	655.322	7.58025	145.948	1.68822
-5.16798	656.094	10.2216	146.12	2.27648
-5.11851	636.119	8.92582	141.672	1.98789
-5.07478	641.062	9.18503	142.772	2.04562
-5.02631	630.035	9.84091	140.317	2.19169
-4.98137	617.769	9.46644	137.585	2.10829
-4.93713	613.111	8.93434	136.547	1.98979
-4.89219	610.684	9.84199	136.007	2.19193
-4.84668	596.705	9.00002	132.894	2.00442
-4.7992	596.621	8.34238	132.875	1.85795
-4.75823	578.209	8.22912	128.774	1.83273
-4.70849	567.195	8.96396	126.322	1.99639
-4.66279	566.606	7.75212	126.19	1.72649
-4.6138	555.732	7.52813	123.768	1.67661
-4.56886	548.392	8.05731	122.134	1.79446
-4.52038	550.026	9.77886	122.498	2.17787
-4.47367	535.593	9.16989	119.283	2.04225
-4.42836	531.277	5.72271	118.322	1.27452
-4.38064	525.49	7.86503	117.033	1.75164
-4.33371	520.136	9.0848	115.841	2.0233
-4.28821	514.945	6.8716	114.685	1.53039
-4.23922	494.605	9.15794	110.155	2.03959
-4.19174	496.6	8.30002	110.599	1.84852
-4.1488	478.564	9.22619	106.582	2.05479
-4.09508	471.83	8.79095	105.082	1.95785
-4.05088	468.05	6.47542	104.24	1.44216
-4.00538	461.859	9.07116	102.862	2.02026
-3.95913	449.092	6.7236	100.018	1.49743
-3.91115	441.13	6.24713	98.2452	1.39131
-3.86418	443.203	7.96373	98.7068	1.77362
-3.81623	425.16	7.49613	94.6884	1.66948
-3.767	414.268	8.29246	92.2627	1.84684
-3.71806	419.044	7.90342	93.3263	1.76019
-3.66982	407.412	7.1685	90.7357	1.59651
-3.62282	396.087	7.42315	88.2136	1.65323
-3.57437	389.654	7.54918	86.7809	1.6813
-3.52964	387.03	5.74508	86.1963	1.2795
-3.48368	375.161	7.9625	83.553	1.77335
-3.43398	364.157	6.37893	81.1024	1.42067
-3.38773	365.456	7.45039	81.3917	1.6593
-3.33978	357.222	9.10908	79.5578	2.02871
-3.29733	348.871	6.936	77.6979	1.54473
-3.24985	345.862	7.19315	77.0277	1.602
-3.20413	331.582	5.78479	73.8475	1.28834
-3.15316	322.77	6.32798	71.8849	1.40932
-3.10368	313.675	7.02918	69.8594	1.56549
-3.06042	313.702	5.8898	69.8653	1.31173
-3.01397	294.769	6.59999	65.6488	1.4699
-2.96999	294.732	6.76323	65.6405	1.50626
-2.91952	291.998	4.71544	65.0315	1.05019
-2.86983	278.667	6.60721	62.0627	1.47151
-2.82256	269.266	7.18694	59.9689	1.60062
-2.7749	263.347	5.64653	58.6507	1.25755
-2.72767	255.538	5.74941	56.9116	1.28047
-2.6799	248.598	5.01326	55.3658	1.11652
-2.62941	236.827	6.19551	52.7443	1.37982
-2.58119	231.121	5.32477	51.4735	1.18589
-2.53524	222.979	6.2252	49.6603	1.38643
-2.48799	218.861	5.59012	48.743	1.24499
-2.4443	206.925	5.17508	46.0847	1.15256
-2.39531	206.702	5.52611	46.0352	1.23073
-2.34653	196.706	5.53866	43.8088	1.23353
-2.29692	184.318	5.14542	41.05	1.14595
-2.24892	180.605	5.17949	40.2229	1.15354
-2.20044	174.84	5.74843	38.939	1.28025
-2.15519	165.035	4.24851	36.7553	0.946197
-2.1037	155.481	4.47393	34.6277	0.9964
-2.05851	150.102	4.03014	33.4295	0.897562
-2.0093	144.273	5.15228	32.1313	1.14748
-1.96055	136.869	4.91306	30.4824	1.0942
-1.91457	124.989	4.31357	27.8367	0.960685
-1.8641	119.649	3.99836	26.6474	0.890485
-1.81492	114.856	4.90676	25.5799	1.0928
-1.77041	105.894	4.44594	23.5839	0.990166
-1.72068	95.6598	4.63466	21.3046	1.0322
-1.67372	90.4457	3.56896	20.1434	0.794853
-1.62524	85.3657	4.97906	19.012	1.1089
-1.57479	73.4871	4.52664	16.3665	1.00814
-1.52807	65.7536	3.44143	14.6441	0.76645
-1.4776	61.0653	4.72635	13.6	1.05262
-1.43089	56.8412	3.95554	12.6592	0.880947
-1.38516	44.8503	4.13011	9.98873	0.919828
-1.3374	38.7801	3.23636	8.63681	0.720778
-1.28965	35.6718	3.96866	7.94456	0.88387
-1.24191	26.4159	3.58835	5.88316	0.799171
-1.19473	18.9275	2.5132	4.2154	0.559721
-1.14597	11.8606	2.84401	2.64149	0.633396
-1.09901	7.84952	3.37188	1.74819	0.750961
-1.0478	-0.799631	2.24187	-0.178088	0.499294
-0.999597	-6.75341	2.47044	-1.50407	0.550199
-0.950381	-12.0683	3.03512	-2.68775	0.675958
-0.900606	-20.3405	2.14863	-4.53008	0.478527
-0.855344	-27.3767	2.48756	-6.09713	0.554011
-0.806836	-35.1998	2.92137	-7.83943	0.650625
-0.759893	-39.1991	2.522	-8.73012	0.561681
-0.718908	-45.7914	2.65591	-10.1983	0.591503
-0.67242	-51.407	2.29725	-11.449	0.511627
-0.624956	-58.4361	2.83106	-13.0144	0.630512
-0.575206	-60.9746	2.06507	-13.5798	0.459918
-0.526986	-66.2937	2.09035	-14.7644	0.465547
-0.480752	-71.8806	1.95308	-16.0087	0.434975
-0.433251	-71.6031	1.99926	-15.9469	0.445259
-0.38776	-77.3586	1.74254	-17.2287	0.388086
-0.34351	-79.3531	2.19304	-17.6729	0.488417
-0.296791	-86.4572	2.05329	-19.2551	0.457293
-0.252301	-84.4762	1.92131	-18.8139	0.427899
-0.205056	-84.4144	1.85782	-18.8001	0.413759
-0.161034	-84.3845	1.95617	-18.7935	0.435663
-0.11157	-84.0974	2.24793	-18.7295	0.500643
-0.069564	-78.9446	2.11898	-17.582	0.471924
-0.0233308	-60.5419	2.00207	-13.4834	0.445886
0.0203991	32.5219	2.06186	7.24303	0.459202
0.0603273	62.7257	1.741	13.9698	0.387742
0.102963	74.8287	1.82102	16.6653	0.405565
0.14431	81.5191	2.00314	18.1553	0.446123
0.190434	82.8478	1.80116	18.4512	0.40114
0.233774	83.9674	2.11725	18.7006	0.471539
0.275493	83.4227	1.87186	18.5793	0.416886
0.323933	80.9139	1.87881	18.0205	0.418435
0.364987	82.986	1.84471	18.482	0.410839
0.41302	76.6372	1.83414	17.0681	0.408487
0.45505	74.1249	2.28125	16.5085	0.508062
0.504053	70.1088	2.19052	15.6141	0.487856
0.54653	64.5184	2.33025	14.3691	0.518976
0.594266	58.7626	2.03584	13.0872	0.453406
0.641255	55.4509	2.14679	12.3496	0.478116
0.688967	48.338	2.68156	10.7655	0.597217
0.737717	42.4484	2.5205	9.45379	0.561346
0.783923	39.001	2.43966	8.68601	0.543343
0.831407	33.0962	2.17395	7.37094	0.484166
0.877639	24.2549	1.82908	5.40186	0.407359
0.926675	21.4609	2.10208	4.77961	0.46816
0.969903	14.2808	2.19614	3.18052	0.489107
1.02062	10.2039	2.50685	2.27253	0.558308
1.06884	-1.72848	2.1677	-0.384955	0.482773
1.11455	-3.46768	3.22437	-0.772296	0.718107
1.16529	-12.5202	2.5253	-2.78841	0.562415
1.2093	-21.7104	3.15701	-4.83517	0.703104
1.25972	-28.1781	3.13772	-6.2756	0.69881
1.30196	-35.1346	3.42611	-7.82491	0.763037
1.34947	-41.9311	4.24835	-9.33857	0.946161
1.39919	-47.3282	3.82201	-10.5406	0.85121
1.44366	-52.4551	3.41717	-11.6824	0.761046
1.49389	-62.4956	3.83169	-13.9186	0.853364
1.54037	-67.4997	2.99872	-15.033	0.667853
1.58708	-74.716	4.31566	-16.6402	0.961151
1.63604	-81.0411	3.4392	-18.0489	0.765952
1.68328	-89.794	4.44465	-19.9982	0.989878
1.73225	-99.6376	4.35861	-22.1905	0.970717
1.78046	-105.512	4.3021	-23.4988	0.958131
1.82722	-114.792	3.89925	-25.5655	0.868412
1.87421	-119.302	4.14093	-26.5701	0.922237
1.92239	-125.297	3.91872	-27.9052	0.872748
1.96889	-137.771	3.78405	-30.6834	0.842756
2.01885	-140.483	5.0561	-31.2873	1.12606
2.06734	-147.476	4.64586	-32.8448	1.03469
2.11502	-155.975	5.3124	-34.7376	1.18314
2.16299	-161.256	5.66772	-35.9137	1.26227
2.20801	-173.711	4.15944	-38.6877	0.926359
2.258	-178.391	5.02168	-39.7298	1.11839
2.30673	-187.364	4.13807	-41.7282	0.9216
2.35119	-189.934	4.68608	-42.3007	1.04365
2.39892	-203.419	4.86997	-45.3039	1.0846
2.44663	-204.922	5.53092	-45.6388	1.23181
2.49263	-215.123	7.14199	-47.9105	1.59061
2.54236	-225.257	5.26685	-50.1675	1.17299
2.59281	-235.979	5.74836	-52.5555	1.28023
2.63926	-239.873	5.68866	-53.4227	1.26693
2.68057	-250.802	5.20103	-55.8567	1.15834
2.72753	-248.369	6.46545	-55.3148	1.43994
2.77654	-263.653	6.22242	-58.7189	1.38581
2.8245	-269.586	5.9009	-60.0402	1.31421
2.87172	-272.887	4.94059	-60.7752	1.10033
2.91994	-281.176	5.24569	-62.6214	1.16828
2.96515	-290.52	5.38986	-64.7024	1.20039
3.00989	-300.029	7.34654	-66.8202	1.63617
3.04987	-301.477	7.10309	-67.1428	1.58195
3.09785	-313.744	6.04723	-69.8747	1.34679
3.14782	-326.548	7.15985	-72.7264	1.59459
3.19585	-334.612	6.17994	-74.5223	1.37635
3.24453	-335.745	5.31622	-74.7746	1.18399
3.292	-347.029	6.56614	-77.2876	1.46236
3.34094	-356.85	5.33645	-79.4751	1.1885
3.38667	-360.499	6.0183	-80.2876	1.34035
3.43465	-371.785	6.61538	-82.8011	1.47333
3.48221	-371.865	6.94145	-82.8189	1.54595
3.52935	-379.413	5.73658	-84.5	1.27761
3.57633	-391.355	6.67153	-87.1596	1.48583
3.62508	-398.226	9.4762	-88.6898	2.11047
3.66903	-407.674	7.31214	-90.7941	1.6285
3.71625	-412.356	7.05894	-91.8369	1.57211
3.76372	-415.413	7.65865	-92.5176	1.70568
3.80996	-428.785	8.66461	-95.4958	1.92972
3.85894	-435.773	5.95226	-97.052	1.32564
3.90415	-439.059	7.49178	-97.7838	1.66851
3.95836	-454.471	6.88219	-101.216	1.53275
4.00436	-458.128	6.52964	-102.031	1.45423
4.04913	-465.422	8.51708	-103.655	1.89686
4.09859	-472.789	7.64968	-105.296	1.70368
4.14856	-486.437	7.1852	-108.336	1.60023
4.19704	-483.801	8.43235	-107.748	1.87799
4.24602	-491.136	9.06466	-109.382	2.01881
4.29196	-511.63	8.39557	-113.946	1.8698
4.34019	-506.504	8.01751	-112.805	1.7856
4.39219	-517.283	7.27968	-115.205	1.62128
4.4409	-526.734	7.29524	-117.31	1.62474
4.48693	-533.758	5.96839	-118.875	1.32924
4.53246	-538.158	6.03277	-119.855	1.34357
4.5759	-543.924	7.68078	-121.139	1.71061
4.62483	-561.422	7.45243	-125.036	1.65975
4.67233	-566.778	10.5869	-126.229	2.35784
4.72005	-572.887	8.18508	-127.589	1.82292
4.76777	-587.237	8.86449	-130.785	1.97423
4.81999	-592.005	6.44452	-131.847	1.43527
4.86621	-592.025	10.4223	-131.851	2.32117
4.91599	-613.293	10.196	-136.588	2.27077
4.96046	-610.093	7.53498	-135.875	1.67813
5.01117	-626.663	9.28322	-139.566	2.06749
5.05562	-633.932	6.6235	-141.185	1.47514
5.10163	-633.772	9.60379	-141.149	2.13888
5.14985	-643.986	9.66746	-143.424	2.15307
5.1963	-649.751	7.16631	-144.708	1.59603
5.24579	-665.195	10.2739	-148.147	2.28812
5.29629	-662.613	9.53304	-147.572	2.12313
5.33546	-676.531	9.6896	-150.672	2.158
5.381975	-686.426	9.85812	-152.876	2.19553
5.43397	-685.24	8.11047	-152.611	1.8063
5.48166	-700.832	11.2058	-156.084	2.49568
5.5304	-702.634	9.44222	-156.485	2.1029
5.57637	-706.353	7.99266	-157.314	1.78006
5.62433	-718.819	7.79692	-160.09	1.73647
5.67307	-729.469	10.1758	-162.462	2.26627
5.72252	-733.769	11.6023	-163.42	2.58399
5.77151	-748.188	8.79141	-166.631	1.95796
5.81878	-753.29	7.8173	-167.767	1.74101
5.86627	-755.03	8.71381	-168.155	1.94068
5.91371	-782.378	11.4669	-174.245	2.55381
5.96171	-774.599	9.86238	-172.513	2.19648
6.00843	-779.987	8.20968	-173.713	1.8284
6.05938	-792.018	8.76133	-176.392	1.95126
6.09988	-794.129	10.3947	-176.862	2.31504
6.14907	-801.87	9.65343	-178.586	2.14994
6.2003	-814.658	11.7217	-181.435	2.61058
6.25009	-828.564	10.9643	-184.532	2.44189
6.29711	-842.5	11.5596	-187.635	2.57447
6.34531	-831.75	11.2038	-185.241	2.49523
6.3925	-841.452	9.06031	-187.402	2.01784
6.44075	-857.41	9.84539	-190.956	2.19269
6.48996	-863.878	10.6819	-192.396	2.37899
6.53946	-862.721	10.8338	-192.139	2.41282
6.58889	-867.579	11.1513	-193.221	2.48352
6.63466	-889.957	10.811	-198.205	2.40775
6.68713	-897.172	10.148	-199.811	2.26009
6.73464	-893.817	9.74301	-199.064	2.16989
6.78386	-904.886	11.1191	-201.529	2.47636
6.83232	-917.584	11.5975	-204.357	2.5829
6.8848	-926.698	10.8456	-206.387	2.41546
6.93128	-931.512	12.5057	-207.459	2.78517
6.98049	-935.108	11.9228	-208.26	2.65536
7.02847	-948.843	11.1314	-211.319	2.47909
7.07917	-961.506	11.5065	-214.139	2.56264
7.12516	-956.369	12.2923	-212.995	2.73765
7.17538	-964.08	9.84936	-214.713	2.19357
7.22439	-985.086	13.9792	-219.391	3.11335
7.27185	-991.586	11.459	-220.839	2.55206
7.32108	-1000.66	9.54299	-222.86	2.12534
7.37082	-1001.29	13.0011	-223	2.89552
7.42053	-1020.65	10.398	-227.311	2.31576
7.46677	-1022.14	9.76774	-227.644	2.1754
7.51198	-1021.51	11.8833	-227.504	2.64656
7.56021	-1034.71	11.7742	-230.443	2.62226
7.60774	-1046.45	10.4223	-233.057	2.32118
7.65023	-1048.65	13.8348	-233.547	3.08118
7.69845	-1054.19	10.2311	-234.781	2.2786
7.74795	-1068.75	13.3233	-238.024	2.96727
7.79639	-1078.91	12.048	-240.286	2.68324
7.84787	-1075.54	12.5614	-239.536	2.79759
7.89736	-1081.95	12.3646	-240.963	2.75374
7.94482	-1096.88	13.857	-244.288	3.08612
7.99656	-1105.39	15.375	-246.185	3.42421
8.04762	-1122.25	12.8272	-249.939	2.85678
8.09708	-1121.68	12.1737	-249.812	2.71123
8.1488	-1124.41	13.8676	-250.421	3.08848
8.19629	-1136.21	12.3546	-253.049	2.75153
8.24051	-1152.75	9.40824	-256.731	2.09533
8.29099	-1155.17	11.7529	-257.271	2.61752
8.34073	-1157	10.9341	-257.679	2.43516
8.3897	-1169.36	15.0712	-260.43	3.35656
8.44017	-1181.37	8.77442	-263.106	1.95417
8.48419	-1189.85	12.6668	-264.995	2.82105
8.5259	-1194.44	11.1424	-266.016	2.48154
8.57115	-1200.37	12.7052	-267.338	2.82961
8.61611	-1210.15	12.5937	-269.516	2.80477
8.6626	-1211.69	12.7135	-269.859	2.83146
8.70631	-1217.48	15.0919	-271.147	3.36115
8.75632	-1233.39	15.7172	-274.691	3.50042
8.79929	-1229.95	10.8168	-273.924	2.40904
8.84376	-1247.23	12.4726	-277.775	2.77781
8.89275	-1245.33	14.4476	-277.352	3.21766
8.94202	-1254.56	12.0854	-279.405	2.69157
8.98972	-1260.45	15.2912	-280.718	3.40553
8.97313	-1267.76	13.2585	-282.345	2.95282
8.92772	-1266.8	16.1503	-282.132	3.59686
8.88104	-1238.83	12.7676	-275.903	2.84349
8.83532	-1225.47	12.8015	-272.928	2.85106
8.78959	-1240.29	13.8824	-276.227	3.09178
8.74486	-1225.06	12.0005	-272.837	2.67266
8.7059	-1231.74	13.8179	-274.325	3.07741
8.65889	-1210.31	10.3192	-269.552	2.29822
8.61314	-1198.92	12.4961	-267.014	2.78304
8.56569	-1207.23	11.5041	-268.865	2.56212
8.51546	-1197	11.966	-266.588	2.66498
8.47321	-1167.38	13.5404	-259.99	3.01562
8.42496	-1182.05	15.133	-263.257	3.37032
8.37746	-1164.54	13.9932	-259.357	3.11647
8.32926	-1154.39	12.7307	-257.097	2.83528
8.28226	-1160.07	10.4263	-258.362	2.32208
8.23578	-1147.18	11.9886	-255.492	2.67
8.18631	-1124.54	13.5762	-250.45	3.02359
8.13781	-1124.14	14.9569	-250.361	3.3311
8.08906	-1126.12	16.5635	-250.801	3.68889
8.03958	-1117.93	13.0047	-248.978	2.89631
7.99608	-1108.23	11.7371	-246.816	2.614
7.94881	-1092.89	14.0434	-243.401	3.12765
7.90183	-1094.08	14.7806	-243.665	3.29182
7.85185	-1076.2	14.727	-239.683	3.27989
7.8061	-1061.68	11.8028	-236.449	2.62864
7.75738	-1068.94	10.0825	-238.066	2.24549
7.71192	-1065.72	11.31	-237.348	2.51887
7.6602	-1052.26	10.0967	-234.351	2.24866
7.61421	-1037.73	15.0111	-231.115	3.34316
7.56893	-1037.87	12.0198	-231.146	2.67696
7.52647	-1027.32	12.632	-228.798	2.81331
7.47671	-1028.99	13.0883	-229.168	2.91492
7.42601	-1010.15	13.4311	-224.973	2.99127
7.37853	-1007.25	11.3417	-224.328	2.52593
7.333	-994.055	11.0498	-221.389	2.46093
7.28155	-991.353	11.8596	-220.787	2.64127
7.23236	-986.774	15.2899	-219.767	3.40525
7.1836	-980.964	10.4708	-218.473	2.33199
7.13011	-963.632	13.6879	-214.613	3.04846
7.08262	-955.904	10.0748	-212.892	2.24378
7.03189	-942.06	12.8232	-209.808	2.85588
6.9832	-940.213	10.4084	-209.397	2.31809
6.93219	-936.564	10.2916	-208.584	2.29206
6.88871	-920.803	11.9469	-205.074	2.66072
6.84372	-918.301	10.6281	-204.517	2.36702
6.79676	-909.703	10.7573	-202.602	2.39578
6.74553	-905.451	12.9977	-201.655	2.89475
6.69654	-895.706	9.51451	-199.485	2.119
6.64704	-881.049	10.4917	-196.221	2.33663
6.59332	-878.461	10.1761	-195.644	2.26634
6.55183	-868.055	13.5133	-193.327	3.00959
6.50061	-847.033	9.1296	-188.645	2.03328
6.45289	-846.596	10.6104	-188.548	2.36306
6.40396	-850.957	13.1918	-189.519	2.93799
6.35273	-851.573	12.5035	-189.656	2.78467
6.30118	-838.411	12.8409	-186.725	2.85982
6.2557	-823.058	12.4458	-183.305	2.77183
6.20518	-823.558	12.1105	-183.417	2.69717
6.15571	-810.783	12.7018	-180.572	2.82885
6.10526	-796.928	10.4679	-177.486	2.33134
6.05778	-786.015	11.7368	-175.055	2.61393
6.01106	-782.459	8.1435	-174.263	1.81366
5.96407	-781	11.0274	-173.939	2.45595
5.91357	-764.842	10.1125	-170.34	2.25217
5.86459	-751.287	11.5441	-167.321	2.57102
5.81792	-755.628	12.0592	-168.288	2.68572
5.76713	-751.886	12.0705	-167.455	2.68824
5.71939	-737.015	9.33402	-164.142	2.0788
5.66967	-725.911	10.0277	-161.669	2.2333
5.62245	-716.98	8.48186	-159.68	1.88902
5.57324	-713.382	8.30461	-158.879	1.84954
5.52478	-702.174	11.1073	-156.383	2.47374
5.4743	-685.4	8.88172	-152.647	1.97807
5.43007	-696.923	9.8886	-155.214	2.20231
5.37957	-682.935	9.93376	-152.098	2.21237
5.33508	-674.076	9.66283	-150.125	2.15203
5.28663	-661.629	9.3938	-147.353	2.09212
5.23717	-658.193	8.57309	-146.588	1.90933
5.18918	-652.436	9.80882	-145.306	2.18455
5.13771	-640.37	8.22722	-142.619	1.8323
5.09073	-630.112	9.88878	-140.334	2.20236
5.04577	-625.667	10.1075	-139.344	2.25107
5.00081	-612.941	10.3992	-136.51	2.31603
4.95033	-603.537	9.74363	-134.415	2.17003
4.89984	-611.453	9.29812	-136.178	2.07081
4.85133	-611.616	8.14249	-136.215	1.81343
4.80335	-590.19	8.44986	-131.443	1.88189
4.7539	-572.845	8.92665	-127.58	1.98808
4.71018	-576.956	7.82505	-128.495	1.74274
4.66547	-559.271	8.38732	-124.557	1.86796
4.61748	-551.939	8.48558	-122.924	1.88984
4.57173	-548.74	9.79807	-122.211	2.18215
4.52128	-546.389	8.67862	-121.688	1.93284
4.47555	-535.304	7.47349	-119.219	1.66444
4.42525	-526.464	8.13465	-117.25	1.81169
4.37531	-524.914	9.11606	-116.905	2.03026
4.3261	-512.306	7.61096	-114.097	1.69506
4.27586	-492.851	7.81011	-109.764	1.73941
4.22689	-487.133	8.70939	-108.491	1.93969
4.18068	-489.849	8.27421	-109.096	1.84277
4.13418	-480.547	8.34908	-107.024	1.85944
4.08401	-465.36	8.25294	-103.641	1.83803
4.03449	-461.066	5.19327	-102.685	1.15661
3.9845	-456.3	8.96197	-101.624	1.99594
3.93855	-453.729	7.7949	-101.051	1.73602
3.88554	-441.885	6.1356	-98.4133	1.36647
3.83859	-431.907	7.24944	-96.191	1.61454
3.79059	-428.311	7.6074	-95.3901	1.69426
3.74441	-425.174	8.4188	-94.6916	1.87497
3.69439	-406.846	8.19495	-90.6098	1.82512
3.64993	-393.809	7.7111	-87.7062	1.71736
3.59898	-392.944	8.49746	-87.5135	1.89249
3.55374	-386.172	8.90963	-86.0053	1.98429
3.50777	-373.778	7.17767	-83.2451	1.59856
3.46278	-376.114	7.18387	-83.7652	1.59994
3.41332	-366.928	7.35403	-81.7194	1.63783
3.36434	-354.074	6.13693	-78.8566	1.36677
3.31788	-347.363	8.25389	-77.3621	1.83824
3.26992	-342.637	7.65921	-76.3096	1.7058
3.2219	-330.246	7.13374	-73.5499	1.58877
3.17248	-321.112	8.78398	-71.5156	1.9563
3.12476	-313.868	7.12274	-69.9022	1.58632
3.07652	-313.873	6.08186	-69.9035	1.35451
3.03148	-304.633	6.58629	-67.8456	1.46685
2.98058	-292.612	7.84325	-65.1683	1.74679
2.9316	-287.183	7.11907	-63.9593	1.58551
2.88488	-279.699	5.73752	-62.2925	1.27782
2.83563	-268.763	6.74205	-59.8568	1.50154
2.7857	-259.915	6.51942	-57.8863	1.45196
2.74121	-255.866	6.0187	-56.9845	1.34044
2.69423	-247.162	5.95406	-55.0462	1.32604
2.64471	-237.518	8.01961	-52.8981	1.78607
2.5987	-238.831	5.47818	-53.1906	1.22006
2.54976	-228.893	7.54021	-50.9773	1.6793
2.50478	-217.618	4.10685	-48.4663	0.914648
2.45605	-206.544	5.11825	-45.9998	1.1399
2.40809	-207.601	6.27212	-46.2354	1.39688
2.3676	-194.513	6.53808	-43.3204	1.45611
2.31636	-187.675	5.50436	-41.7975	1.22589
2.27166	-185.265	5.59696	-41.2609	1.24651
2.22219	-168.49	5.01589	-37.5248	1.1171
2.1799	-169.51	5.72465	-37.7521	1.27495
2.13121	-159.358	5.89781	-35.491	1.31352
2.08024	-151.242	3.47414	-33.6835	0.773735
2.03102	-142.349	5.50657	-31.7028	1.22638
1.98129	-136.225	4.61358	-30.339	1.0275
1.9301	-127.745	4.2258	-28.4505	0.941138
1.88141	-122.631	5.34893	-27.3115	1.19127
1.83243	-114.664	4.59221	-25.537	1.02274
1.78321	-104.326	4.75239	-23.2347	1.05842
1.73597	-97.0644	4.75352	-21.6175	1.05867
1.68348	-91.5076	3.41625	-20.3799	0.760841
1.63528	-87.4166	4.88645	-19.4688	1.08827
1.58707	-74.9446	6.49559	-16.6911	1.44665
1.53933	-70.5974	3.55447	-15.7229	0.791625
1.4901	-59.9305	3.75415	-13.3473	0.836095
1.44315	-54.9965	4.31487	-12.2484	0.960975
1.39542	-42.7418	5.0898	-9.51914	1.13356
1.34645	-38.4231	3.56771	-8.55731	0.794573
1.29621	-32.2018	4.87762	-7.17175	1.08631
1.25095	-24.4086	3.7315	-5.43609	0.831052
1.21026	-21.2418	2.7816	-4.73082	0.619497
1.15979	-17.4694	2.57588	-3.89066	0.573682
1.11381	-8.14159	3.3084	-1.81323	0.736821
1.06558	0.387496	3.41028	0.0863002	0.759511
1.01434	9.03994	2.57072	2.01331	0.572532
0.965389	14.4214	3.04584	3.21183	0.678347
0.918913	21.0164	2.74138	4.68062	0.61054
0.867618	27.4381	2.40935	6.11081	0.536593
0.824405	33.7888	1.70889	7.5252	0.380591
0.775201	38.9159	3.01527	8.66706	0.671538
0.730739	46.3925	2.29923	10.3322	0.512067
0.684741	50.585	2.3342	11.2659	0.519855
0.637277	57.3815	1.99543	12.7796	0.444407
0.593798	60.1277	2.00872	13.3912	0.447366
0.54133	66.1341	1.94853	14.7289	0.433961
0.4951	72.598	2.52169	16.1685	0.561612
0.447639	79.1747	1.76934	17.6332	0.394055
0.401118	79.2367	2.02652	17.647	0.451332
0.353642	82.0077	2.08723	18.2641	0.464853
0.310145	83.4577	1.8836	18.5871	0.419501
0.263886	87.3569	2.55226	19.4555	0.56842
0.219687	87.7378	2.13125	19.5403	0.474656
0.172429	89.2357	1.89555	19.8739	0.422164
0.128183	86.8988	1.81059	19.3534	0.40324
0.0801937	83.3725	1.60061	18.5681	0.356476
0.0347192	66.5985	1.78545	14.8323	0.397643
-3.88206e-05	13.5429	1.50519	3.01618	0.335225