File: data/monolayers/nanoparticles/Ac_CoFe_C/vsm/Backup/AH11_ZFC_LangevinSAXSscaled.xye
#Executed at: 2018-11-15 15:45:37.0535
#Loaded File	 = ../rawdata/DD226_2_ZFCW_100OE.DAT
#Rescale Factor	 = 4.32812
#[[Data]]
#T/K	M/kAm-1	sM/kAm-1	M_raw/memu	sM_raw/memu
10.0116	-2.10069	1.33138	-0.485358	0.307612
10.0178	-1.2614	1.38484	-0.291443	0.319963
10.5508	-1.18828	1.60878	-0.274549	0.371704
11.0279	-0.620854	1.30473	-0.143446	0.301454
11.5781	-1.22183	1.20851	-0.2823	0.279223
12.0595	-2.17825	1.27811	-0.503279	0.295304
12.5428	-1.16179	1.22887	-0.268427	0.283928
13.0273	-1.62944	1.26338	-0.376476	0.291901
13.5557	-1.20337	1.23824	-0.278035	0.286092
14.0002	-1.82604	1.1535	-0.421902	0.266513
14.5552	-2.03178	1.27458	-0.469438	0.294487
15.003	-1.20952	1.20616	-0.279456	0.278679
15.5487	-1.55947	1.18657	-0.360311	0.274153
16.0199	-0.24705	1.1666	-0.0570802	0.26954
16.5302	-0.712028	1.13505	-0.164512	0.262249
17.0303	-1.95418	1.1331	-0.451508	0.261799
17.5174	-0.0981772	1.17576	-0.0226835	0.271655
18.0026	-1.48729	1.51367	-0.343634	0.34973
18.5053	-0.956513	1.11638	-0.221	0.257937
19.0146	-0.103461	1.21564	-0.0239043	0.280871
19.5252	0.160945	0.964133	0.0371858	0.22276
20.822	-1.89113	1.48747	-0.436941	0.343676
21.0404	0.120656	1.16244	0.0278771	0.268579
21.5438	-1.99815	1.21342	-0.461667	0.280357
22.0143	-1.45062	1.21227	-0.335162	0.280092
22.5227	-1.49419	1.30884	-0.345229	0.302403
23.0383	-0.848932	1.34594	-0.196143	0.310975
23.5281	-2.64652	1.16848	-0.611469	0.269975
24.0301	-0.632901	1.13929	-0.14623	0.26323
24.5205	-3.07426	1.28876	-0.710299	0.297765
25.0673	-0.824489	1.33036	-0.190496	0.307375
25.5262	-0.226851	1.35055	-0.0524131	0.312041
26.0159	-2.13148	1.36566	-0.492471	0.315533
26.5238	-0.322572	1.34612	-0.0745294	0.311017
27.0464	-0.322192	1.20356	-0.0744414	0.278078
27.5187	-1.31722	1.22881	-0.30434	0.283914
28.0644	-0.747743	1.17529	-0.172764	0.271547
28.5351	-1.12784	1.38511	-0.260584	0.320027
29.0052	-1.652	1.20552	-0.38169	0.278532
29.5294	-1.52247	1.29728	-0.351762	0.299732
30.0502	-0.727302	1.42055	-0.168041	0.328215
31.2374	-0.859275	1.37201	-0.198533	0.316999
31.506	-1.36485	1.11731	-0.315344	0.258151
32.0013	-0.806819	1.43021	-0.186413	0.330445
32.5865	-2.0017	1.31675	-0.462486	0.304232
33.0505	-1.48282	1.34912	-0.342602	0.311711
33.5508	-1.67199	1.21756	-0.386309	0.281315
34.0195	0.228051	1.52664	0.0526905	0.352725
34.5375	-0.59327	1.23426	-0.137073	0.285171
35.0054	-0.693875	1.05687	-0.160318	0.244186
35.5277	-1.15618	1.04492	-0.267131	0.241425
36.0161	-0.94419	1.19013	-0.218152	0.274977
36.5619	-1.00472	1.25581	-0.232138	0.29015
37.0787	-1.99459	1.51407	-0.460845	0.34982
37.5248	-2.26734	1.39737	-0.523862	0.322857
38.0557	-0.305663	1.23133	-0.0706226	0.284495
38.5062	-1.42637	1.21736	-0.329559	0.281266
39.0432	-2.35314	1.27682	-0.543685	0.295005
39.5632	-0.806324	1.4109	-0.186299	0.325984
40.0641	-0.535931	1.22383	-0.123825	0.282763
40.57061	-1.39211	1.52156	-0.321642	0.351552
41.6722	-0.961259	0.979394	-0.222096	0.226286
42.0651	-2.79955	1.28516	-0.646829	0.296932
42.5183	-2.2044	1.24769	-0.509319	0.288275
43.0325	-0.958684	1.10518	-0.221501	0.255349
43.5336	-0.618484	1.16612	-0.142899	0.269428
44.0541	-0.964545	1.08185	-0.222855	0.249957
44.5629	-1.57976	1.11109	-0.364999	0.256714
45.0083	-1.24794	1.14969	-0.288332	0.265632
45.5094	-0.0035373	1.0801	-0.000817283	0.249553
46.0115	-0.969841	1.53723	-0.224079	0.355172
46.504	-0.73482	1.09469	-0.169778	0.252925
47.0006	-0.94612	1.41227	-0.218598	0.3263
47.5467	-1.30351	1.31713	-0.301173	0.30432
48.0049	-1.68677	0.964431	-0.389723	0.222829
48.5103	-2.08128	1.23521	-0.480874	0.285391
49.0099	-0.657303	1.17424	-0.151868	0.271305
49.5715	-0.66722	1.26093	-0.154159	0.291335
50.0065	-0.86119	1.28845	-0.198975	0.297692
50.5269	-0.61081	1.41487	-0.141126	0.326902
51.0262	-0.399271	1.44807	-0.0922503	0.334572
52.1011	-0.00247662	1.26017	-0.000572215	0.291159
52.5252	-1.93657	1.23063	-0.447438	0.284334
53.0476	-1.28086	1.3212	-0.295939	0.305259
53.5395	-0.240597	1.09459	-0.0555892	0.252901
54.0467	-0.084487	1.34353	-0.0195205	0.310418
54.582	-0.280774	1.21833	-0.064872	0.281492
55.07	-0.322051	1.09381	-0.0744088	0.252721
55.5612	-1.52813	1.47612	-0.353071	0.341052
56.0782	-1.37743	1.20888	-0.31825	0.279308
56.5276	-0.48843	1.30263	-0.11285	0.300969
57.0625	-0.609499	1.29693	-0.140823	0.299651
57.507	-1.02565	1.11195	-0.236973	0.256914
58.0263	-0.336746	1.34485	-0.0778041	0.310723
58.5194	0.111976	1.42407	0.0258718	0.329026
59.0349	-1.07781	1.16358	-0.249024	0.268843
59.5338	-0.944474	1.32175	-0.218218	0.305386
60.0523	-1.41062	1.19661	-0.325919	0.276474
60.5003	-1.68624	1.13614	-0.389601	0.262501
61.0486	-0.662263	1.09207	-0.153014	0.252319
61.5568	-0.533375	1.45478	-0.123235	0.336123
62.5717	-0.228993	1.33371	-0.0529082	0.308149
63.0092	-1.47359	1.20111	-0.340469	0.277514
63.5168	-2.55286	1.32916	-0.58983	0.307097
64.0043	-0.980565	1.22594	-0.226557	0.283249
64.5248	-1.56621	1.29238	-0.361868	0.2986
65.055	-1.2911	1.20404	-0.298304	0.278189
65.5607	-0.935552	1.48499	-0.216157	0.343102
66.0193	-0.644562	1.27942	-0.148924	0.295607
66.5455	-2.53538	1.31364	-0.585792	0.303511
67.0323	-1.45534	1.31031	-0.336253	0.302744
67.5617	-0.365804	1.23632	-0.084518	0.285648
68.0422	-1.33563	1.14112	-0.308594	0.263651
68.529	-1.01712	1.19511	-0.235002	0.276126
69.0313	-0.469621	1.24487	-0.108504	0.287625
69.529	0.144958	1.39278	0.0334922	0.321798
70.0492	-1.10122	1.38999	-0.254432	0.321153
70.5568	-1.19068	1.00353	-0.275104	0.231862
71.021	-2.0955	1.35982	-0.484159	0.314183
71.5143	-0.256462	1.03696	-0.0592547	0.239587
72.0225	-1.63039	1.2587	-0.376696	0.290819
72.9655	-2.38185	1.16837	-0.550318	0.269949
73.0229	-0.0340234	1.25773	-0.00786099	0.290594
73.555	-1.55282	1.06766	-0.358775	0.246679
74.0673	-0.759617	1.18863	-0.175507	0.274628
74.5	0.2561	1.41693	0.0591712	0.327377
74.5721	-1.27132	1.36003	-0.293734	0.314232
75.0194	0.0630023	1.36307	0.0145565	0.314934
75.5263	-0.642667	1.41451	-0.148486	0.326819
76.0274	-0.0164211	1.3881	-0.00379405	0.320716
76.5026	-1.92233	1.34567	-0.444148	0.310913
77.0346	-0.305745	1.1583	-0.0706414	0.267622
77.5043	-1.08122	1.11212	-0.249812	0.256951
78.0134	-0.674429	1.19957	-0.155825	0.277157
78.5162	-0.824563	1.33505	-0.190513	0.308459
79.0267	-0.216515	1.48502	-0.0500252	0.343109
79.5789	-1.51158	1.5702	-0.349246	0.362789
80.0803	-0.472886	1.30862	-0.109259	0.302352
80.5661	-1.6024	1.31507	-0.370229	0.303843
81.0487	-0.936938	1.25507	-0.216477	0.28998
81.526	-1.66111	1.50347	-0.383794	0.347372
82.0007	-1.6595	1.14569	-0.383423	0.264708
82.51	-1.43093	1.36756	-0.330613	0.315971
83.5621	-1.64409	1.39072	-0.379862	0.321321
84.0792	-1.05398	1.41622	-0.243519	0.327214
84.5309	-0.222797	1.1913	-0.0514765	0.275245
85.1127	-0.913066	1.27212	-0.210961	0.293919
85.541	-0.985156	1.445	-0.227617	0.333863
86.0542	-2.59624	1.30966	-0.599854	0.302593
86.5554	-0.841415	1.30703	-0.194406	0.301987
87.0616	0.155268	1.62053	0.0358742	0.374419
87.5376	0.761822	1.28422	0.176017	0.296716
88.0838	-0.565997	1.09261	-0.130772	0.252445
88.5533	-0.859554	1.25975	-0.198597	0.291062
89.0557	-2.49484	1.24151	-0.576424	0.286848
89.6032	-0.493568	1.29879	-0.114037	0.30008
90.0578	-0.899057	1.29333	-0.207724	0.298819
90.5779	-1.61737	1.28625	-0.37369	0.297185
91.0471	-1.06249	1.23055	-0.245486	0.284316
91.6152	-2.1398	1.15743	-0.494395	0.26742
92.1032	-0.842974	1.07211	-0.194767	0.247707
92.5652	0.0151799	1.21422	0.00350728	0.280541
93.0185	-0.361298	1.26739	-0.0834769	0.292826
94.1542	-1.31158	1.45332	-0.303036	0.335784
94.5491	0.0096494	1.10478	0.00222947	0.255256
95.0444	-0.746826	1.46202	-0.172552	0.337796
95.5475	-2.18999	1.51199	-0.505991	0.34934
96.0888	-0.826832	1.34709	-0.191037	0.31124
96.6233	-0.681551	1.10703	-0.15747	0.255776
97.1041	0.358835	1.37729	0.0829077	0.318218
97.5955	-0.279199	1.28524	-0.0645082	0.296951
98.0032	-1.75016	1.15292	-0.404369	0.266378
98.5047	-1.45802	1.52169	-0.336871	0.351581
99.0411	-0.837178	1.30638	-0.193427	0.301836
99.5393	-1.0081	1.37083	-0.232918	0.316727
100.011	-0.434699	1.28122	-0.100436	0.296022
100.504	-2.29724	1.33823	-0.53077	0.309195
101.062	0.1462	1.38685	0.033779	0.320428
101.534	-0.656698	1.29411	-0.151728	0.299001
102.013	-1.56661	1.23094	-0.361961	0.284405
102.525	0.183673	1.42618	0.0424371	0.329514
103.015	-1.00139	1.11163	-0.231368	0.25684
103.511	-0.917648	1.35649	-0.21202	0.313413
104.452	-1.72888	1.34354	-0.399453	0.31042
104.508	-1.02397	1.38912	-0.236585	0.320952
105.047	0.769051	1.29561	0.177687	0.299348
105.54	0.0982379	1.34767	0.0226976	0.311375
106.012	-2.42482	1.13908	-0.560246	0.263181
106.532	-0.945329	1.07707	-0.218415	0.248853
107.013	-0.500235	1.233	-0.115578	0.28488
107.503	-0.0531036	1.29704	-0.0122694	0.299678
108.052	-0.0726863	1.54147	-0.016794	0.356153
108.564	-0.812674	1.32038	-0.187766	0.305071
109.048	-1.38042	1.56092	-0.318943	0.360646
109.563	-0.3385	1.59163	-0.0782094	0.367742
110.059	0.131497	1.36326	0.030382	0.314977
110.511	-1.02028	1.22682	-0.235733	0.283454
111.054	-2.64525	1.23629	-0.611176	0.285642
111.544	-0.711398	1.19891	-0.164366	0.277005
112.018	0.593284	1.24139	0.137076	0.28682
112.515	-0.827163	1.36992	-0.191113	0.316515
113.059	-0.0313874	1.36369	-0.00725197	0.315076
113.519	-0.781814	1.38087	-0.180636	0.319046
114.041	-1.61378	1.15913	-0.372858	0.267814
114.864	-0.372549	1.12419	-0.0860763	0.25974
115.041	-0.312015	1.31488	-0.0720901	0.303798
115.552	0.758072	1.13347	0.17515	0.261885
116.046	-1.14634	1.17265	-0.264859	0.270936
116.53	0.162473	1.31399	0.0375389	0.303593
117.019	0.994469	1.19717	0.229769	0.276603
117.514	0.369514	1.39308	0.0853751	0.321867
118.013	-1.68434	1.43311	-0.389162	0.331115
118.509	-0.520513	1.39781	-0.120263	0.32296
119.065	-0.246866	1.23489	-0.0570377	0.285319
119.549	-0.474822	1.29692	-0.109706	0.299649
120.05	0.591178	1.19284	0.13659	0.275602
120.554	1.20283	1.14654	0.277911	0.264904
121.041	-0.276628	1.34955	-0.0639142	0.311809
121.528	-1.36372	1.35984	-0.315083	0.314187
122.017	-1.03673	1.47831	-0.239533	0.341558
122.508	-0.723282	1.328	-0.167112	0.306831
123.02	-1.13858	1.17859	-0.263066	0.272309
123.534	-1.32843	1.46469	-0.30693	0.338413
124.026	-1.04201	1.30736	-0.240754	0.302062
125.257	-1.15134	1.18109	-0.266014	0.272887
125.553	-2.16621	1.16956	-0.500496	0.270224
126.056	-0.0349722	1.38594	-0.00808021	0.320217
126.549	-0.353488	1.27301	-0.0816723	0.294125
127.048	-0.408964	1.41617	-0.09449	0.327201
127.541	-0.457186	1.34616	-0.105631	0.311026
128.042	-1.85392	1.37264	-0.428342	0.317145
128.533	-1.61512	1.28837	-0.37317	0.297673
129.008	-1.51587	1.39375	-0.350238	0.322022
129.544	-1.28631	1.44417	-0.297199	0.333672
130.036	0.510722	1.35534	0.118001	0.313147
130.512	-0.670863	1.36534	-0.155001	0.315459
131.013	-0.49851	1.36026	-0.115179	0.314284
131.504	-0.982619	1.37147	-0.227031	0.316874
132.048	-0.810339	1.31615	-0.187226	0.304094
132.526	0.250668	1.51471	0.0579161	0.34997
133.059	0.739361	1.29052	0.170827	0.298171
133.561	-0.264827	1.28163	-0.0611874	0.296116
134.041	0.0977263	1.40021	0.0225794	0.323515
134.541	0.0753837	1.21219	0.0174172	0.280073
135.685	-0.268022	1.44386	-0.0619257	0.333599
136.053	-1.31727	1.55164	-0.304351	0.358502
136.558	-0.407931	1.28615	-0.0942511	0.297161
137.043	0.388808	1.21886	0.089833	0.281614
137.556	0.471777	1.1525	0.109003	0.266281
138.056	-0.480929	1.34895	-0.111117	0.31167
138.542	-0.0485368	1.27691	-0.0112143	0.295027
139.044	-1.05918	1.10929	-0.24472	0.256298
139.528	-0.0824094	1.17936	-0.0190404	0.272487
140.03	-1.02056	1.45856	-0.235798	0.336996
140.562	-0.228204	1.34321	-0.0527259	0.310346
141.021	0.236402	1.3801	0.05462	0.318869
141.518	-0.789397	1.37919	-0.182388	0.318657
142.036	-1.23288	1.21068	-0.284853	0.279723
142.52	-1.389	1.28569	-0.320924	0.297055
143.011	-0.734582	1.55565	-0.169723	0.359427
143.524	-1.21992	1.38001	-0.281858	0.318847
144.024	0.268056	1.17976	0.0619336	0.272581
144.512	0.2177	1.38066	0.0502989	0.318998
145.044	-0.89399	1.35844	-0.206554	0.313864
146.073	-0.380766	1.1435	-0.0879748	0.264201
146.55	0.077327	1.25314	0.0178662	0.289534
147.003	0.083439	1.44204	0.0192783	0.333178
147.512	-0.551324	1.22732	-0.127382	0.283569
148.031	-0.134859	1.36071	-0.0311587	0.314389
148.516	-0.549805	1.35473	-0.127031	0.313006
149.014	-0.762027	1.42682	-0.176064	0.329662
149.51	0.610823	1.24783	0.141129	0.288306
150.037	-1.33795	1.1717	-0.309129	0.270719
150.531	-0.294655	1.44799	-0.0680791	0.334555
151.02	0.212755	1.22732	0.0491563	0.28357
151.501	-0.475697	1.3013	-0.109908	0.300662
152.046	-0.829433	1.56127	-0.191638	0.360727
152.562	-1.24846	1.22045	-0.288454	0.281981
153.038	-0.797923	1.17231	-0.184358	0.270858
153.539	1.8445	1.13548	0.426166	0.262349
154.026	-0.0228335	1.41057	-0.00527561	0.325909
154.502	-0.899071	1.51499	-0.207728	0.350034
155.052	0.431041	1.19413	0.0995907	0.2759
155.559	-0.846365	1.30941	-0.19555	0.302536
156.541	0.0897118	1.31974	0.0207276	0.304922
157.032	0.0283299	1.52397	0.00654554	0.352109
157.519	-0.0487126	1.25189	-0.0112549	0.289245
158.011	0.620706	1.22747	0.143412	0.283603
158.507	-0.14722	1.18453	-0.0340146	0.273682
159.007	0.0374433	1.26698	0.00865117	0.292731
159.507	-0.839654	1.46777	-0.194	0.339123
160.047	-0.454241	1.40742	-0.104951	0.32518
160.54	-0.07997	1.25282	-0.0184768	0.28946
161.048	-0.266201	1.31818	-0.0615049	0.304561
161.548	0.522655	1.3918	0.120758	0.321571
162.045	-1.27105	1.42157	-0.293673	0.32845
162.53	0.180588	1.44476	0.0417244	0.333807
163.013	-1.46654	1.01205	-0.33884	0.23383
163.515	1.43205	1.21663	0.330872	0.281099
164.003	0.368741	1.48078	0.0851966	0.342129
164.541	-0.734032	1.46984	-0.169596	0.339602
165.04	-0.636922	1.28025	-0.147159	0.295797
165.548	-1.87051	1.51169	-0.432176	0.349271
166.026	-1.48652	1.19571	-0.343455	0.276265
167.011	-0.195047	1.16258	-0.045065	0.268612
167.533	0.18781	1.41638	0.0433929	0.327251
168.044	-1.42262	1.54323	-0.328693	0.35656
168.53	-2.10919	1.30088	-0.487322	0.300565
169.037	-0.605809	1.21424	-0.13997	0.280546
169.528	1.12251	1.39363	0.259353	0.321995
170.023	-0.683218	1.25405	-0.157855	0.289743
170.518	-0.605268	1.3589	-0.139845	0.313969
171.015	1.38476	1.27738	0.319944	0.295135
171.522	-0.591884	1.34047	-0.136753	0.309713
172.013	0.45018	1.29854	0.104013	0.300023
172.55	0.628602	1.33721	0.145237	0.308957
173.057	-1.30123	1.37258	-0.300646	0.317131
173.552	0.616349	1.49387	0.142406	0.345154
174.078	0.15727	1.47165	0.0363368	0.340021
174.528	0.404243	1.51736	0.0933991	0.350582
175.033	0.833902	1.45068	0.192671	0.335176
175.508	0.0843201	1.23476	0.0194819	0.285288
176.001	0.255211	1.49347	0.0589658	0.345063
176.549	1.08114	1.23918	0.249794	0.286308
177.38	-0.631134	1.44699	-0.145822	0.334323
177.555	-0.0724691	1.32561	-0.0167438	0.306277
178.04	1.99805	1.24438	0.461642	0.28751
178.563	2.7388	1.38813	0.632791	0.320724
179.002	0.943415	1.23289	0.217973	0.284855
179.568	-0.152312	1.31479	-0.0351913	0.303778
180.001	1.13226	1.39577	0.261605	0.322489
180.565	-0.385536	1.26806	-0.089077	0.292981
181.03	0.671149	1.66152	0.155067	0.383889
181.539	-0.995736	1.55469	-0.230062	0.359206
182.031	1.01221	1.4531	0.233869	0.335735
182.502	1.08031	1.22729	0.249602	0.283563
183.019	1.08522	1.52738	0.250736	0.352897
183.547	1.36478	1.3752	0.315329	0.317735
184.025	1.12264	1.66385	0.259383	0.384428
184.517	1.32861	1.4797	0.306971	0.34188
185.008	1.18308	1.44833	0.273348	0.334633
185.513	0.507793	1.66942	0.117324	0.385715
186.011	0.753072	1.42441	0.173995	0.329105
186.551	1.01944	1.4926	0.235538	0.344861
187.009	-0.498231	1.29724	-0.115115	0.299724
187.851	1.33244	1.2119	0.307857	0.280006
188.025	1.5812	1.64546	0.365331	0.380178
188.518	0.893412	1.4569	0.20642	0.336613
189.052	1.61852	1.22288	0.373955	0.282543
189.558	0.525298	1.15162	0.121368	0.266079
190.041	1.83781	1.49863	0.42462	0.346253
190.522	0.759996	1.506	0.175595	0.347956
191.016	1.48807	1.25568	0.343813	0.290121
191.505	-0.0278785	1.29436	-0.00644124	0.299059
192.053	0.489034	1.80799	0.11299	0.41773
192.533	1.5091	1.46424	0.348672	0.338309
193.048	1.92906	1.37134	0.445704	0.316843
193.512	2.29494	1.43316	0.530238	0.331127
194.074	1.96953	1.21377	0.455055	0.280437
194.552	1.38741	1.76158	0.320557	0.407009
195.026	1.46648	1.56131	0.338826	0.360735
195.514	1.31443	1.46924	0.303695	0.339463
196.056	2.74759	1.38021	0.634823	0.318894
196.56	1.57624	1.45447	0.364187	0.336051
197.021	3.48489	1.47328	0.805174	0.340398
198.257	1.0918	1.52579	0.252257	0.35253
198.528	1.57986	1.55151	0.365022	0.358473
199.01	0.105564	1.51322	0.0243903	0.349625
199.52	1.43583	1.69777	0.331743	0.392264
200.023	1.14191	1.73933	0.263835	0.401868
200.545	3.10493	1.41235	0.717385	0.326318
201.021	1.99728	1.38325	0.461467	0.319596
201.517	3.3488	1.39307	0.77373	0.321864
202.067	1.57279	1.42539	0.363388	0.329331
202.545	4.41495	1.53027	1.02006	0.353565
203.041	1.69927	1.15979	0.39261	0.267966
203.542	3.02053	1.41747	0.697885	0.327502
204.026	0.9716	1.56045	0.224485	0.360537
204.513	2.02979	1.2573	0.468976	0.290496
205.008	2.28138	1.45741	0.527105	0.33673
205.544	1.65513	1.36536	0.382413	0.315463
206.037	3.10923	1.22404	0.718379	0.282811
206.512	3.61312	1.49244	0.8348	0.344824
207.007	2.73718	1.45391	0.632418	0.33592
207.553	3.841	1.50197	0.887451	0.347026
208.67	3.56555	1.2742	0.823811	0.294401
209.008	1.04044	1.40719	0.240392	0.325128
209.517	2.59774	1.54288	0.600199	0.356478
210.008	2.98959	1.30514	0.690735	0.301548
210.555	1.06738	1.6256	0.246614	0.37559
211.005	3.36422	1.38955	0.777292	0.321052
211.542	4.39565	1.10841	1.0156	0.256096
212.042	3.3491	1.77939	0.773799	0.411123
212.526	4.0173	1.40559	0.928186	0.324758
213.024	4.14024	1.42502	0.956589	0.329246
213.54	4.20149	1.38565	0.970743	0.320149
214.011	3.56373	1.56318	0.82339	0.361168
214.554	3.4149	1.64167	0.789003	0.379302
215.055	5.88618	1.19828	1.35998	0.27686
215.513	3.81867	1.50098	0.882292	0.346797
216.008	2.96199	1.30959	0.684358	0.302577
216.52	3.88334	1.49701	0.897233	0.345881
217.021	3.73529	1.60287	0.863026	0.370339
217.52	4.97763	1.49772	1.15007	0.346045
218.017	4.96339	1.46104	1.14678	0.337568
219.072	4.17606	1.30543	0.964866	0.301616
219.506	4.8012	1.3094	1.1093	0.302533
220.026	5.1655	1.37114	1.19347	0.316797
220.52	4.75444	1.48919	1.0985	0.344072
221.062	4.62115	1.64906	1.0677	0.38101
221.55	4.53685	1.53192	1.04823	0.353947
222.039	6.61762	1.44247	1.52898	0.333278
222.5	6.09916	1.38348	1.40919	0.319648
223.039	7.77072	1.48151	1.7954	0.342298
223.526	8.56185	1.73642	1.97819	0.401195
224.033	5.86646	1.44576	1.35543	0.334039
224.523	8.25808	1.47848	1.908	0.341599
225.045	5.66653	1.50891	1.30924	0.348629
225.533	6.7763	1.33459	1.56564	0.308354
226.053	6.77131	1.51586	1.56449	0.350236
226.521	5.60346	1.42694	1.29466	0.329689
227.078	8.74944	1.55681	2.02153	0.359695
227.53	5.80089	1.46019	1.34028	0.337373
228.09	8.09751	1.73152	1.8709	0.400063
228.553	6.6306	1.60928	1.53198	0.371819
229.543	7.68959	1.36278	1.77666	0.314866
230.022	8.27343	1.28119	1.91155	0.296014
230.501	6.74681	1.57406	1.55883	0.363681
231.037	7.89081	1.36442	1.82315	0.315245
231.507	8.36934	1.6865	1.93371	0.389661
232.06	8.15239	1.19004	1.88358	0.274956
232.554	8.30884	1.51087	1.91973	0.349082
233.034	7.38351	1.48624	1.70594	0.343392
233.541	10.5395	1.78763	2.43511	0.413026
234.08	8.60099	1.47287	1.98723	0.340301
234.506	9.04266	1.54132	2.08928	0.356118
235.02	7.17524	1.47679	1.65782	0.341209
235.518	12.2744	1.38961	2.83596	0.321066
236.03	9.14583	1.69248	2.11312	0.391043
236.506	8.96476	1.76328	2.07128	0.4074
237.04	9.21737	1.80422	2.12965	0.416859
237.533	9.85251	1.56769	2.27639	0.36221
238.017	9.31055	1.43234	2.15117	0.330938
238.534	11.8447	1.63638	2.73668	0.37808
239.032	9.8722	1.20526	2.28094	0.278472
240.035	9.95825	1.64686	2.30082	0.380501
240.528	8.78176	1.80755	2.029	0.417628
241.043	11.4734	1.56677	2.65089	0.361999
241.532	10.0552	1.59252	2.32322	0.367948
242.029	14.6928	1.5214	3.39472	0.351516
242.565	11.1288	1.67033	2.57127	0.385924
243.023	12.3186	1.92137	2.84617	0.443926
243.535	11.9588	1.81966	2.76305	0.420428
244.002	13.4921	1.58371	3.11731	0.365912
244.526	12.3227	1.71921	2.84712	0.397219
245.028	11.7256	1.42598	2.70917	0.329469
245.566	12.956	1.95314	2.99344	0.451267
246.054	13.5449	1.6713	3.12952	0.38615
246.543	15.0229	1.90317	3.471	0.439721
247.027	13.8451	1.53906	3.19887	0.355595
247.548	14.4425	1.84641	3.33689	0.426607
248.039	15.5101	1.59306	3.58355	0.368071
248.525	13.7558	1.93937	3.17823	0.448086
249.025	15.136	1.32603	3.49713	0.306375
249.541	12.5362	1.77924	2.89645	0.411088
250.448	15.3198	1.70942	3.5396	0.394955
250.554	12.6028	1.56692	2.91184	0.362032
251.001	15.3909	2.10936	3.55602	0.487362
251.512	14.7136	1.50763	3.39953	0.348333
252.052	17.3371	1.83663	4.00568	0.424348
252.503	15.2032	1.80796	3.51266	0.417725
253.052	15.2667	1.56286	3.52732	0.361094
253.514	16.1168	1.5565	3.72373	0.359624
254.033	16.067	1.4127	3.71223	0.3264
254.512	18.7924	1.83953	4.34193	0.425017
255.06	16.8348	1.97328	3.88964	0.455922
255.559	18.4506	1.98165	4.26296	0.457854
256.005	18.3878	2.36911	4.24845	0.547377
256.506	16.673	1.64263	3.85225	0.379524
257.039	18.7188	2.02247	4.32493	0.467286
257.531	17.0137	1.85674	3.93096	0.428993
258.067	19.1837	1.80722	4.43234	0.417553
258.554	18.0962	1.84254	4.18107	0.425713
259.024	18.6275	1.84811	4.30384	0.427001
259.502	18.7166	1.70852	4.32442	0.394747
260.899	21.2335	1.79421	4.90594	0.414547
261.041	18.9257	1.35251	4.37273	0.312495
261.513	20.4524	1.66463	4.72546	0.384607
262.001	20.9519	1.51133	4.84088	0.349188
262.525	21.9869	2.11957	5.08001	0.48972
263.035	19.8763	1.7585	4.59235	0.406295
263.535	20.8226	1.9335	4.81101	0.446728
264.028	21.0107	1.51248	4.85445	0.349455
264.529	19.3277	1.56947	4.4656	0.362621
265.053	21.7446	1.50279	5.02402	0.347215
265.506	21.5995	1.67141	4.9905	0.386174
266.006	19.6666	1.71114	4.54392	0.395353
266.555	21.6521	1.95462	5.00266	0.451609
267.038	22.5235	1.77962	5.20398	0.411177
267.534	21.3324	1.88224	4.92879	0.434886
268.04	23.3652	1.81035	5.39846	0.418275
268.539	22.0991	2.14578	5.10594	0.495776
269.055	22.437	1.67666	5.184	0.387387
269.542	23.8615	1.80914	5.51314	0.417996
270.043	22.521	1.75132	5.20341	0.404636
271.304	24.2227	1.85789	5.59657	0.42926
271.551	24.189	2.25904	5.58881	0.521945
272.044	24.5758	1.53952	5.67817	0.355703
272.535	23.8293	1.77014	5.50569	0.408986
273.045	23.6736	1.80914	5.46971	0.417997
273.5	25.939	1.86063	5.99314	0.429893
274.008	24.3765	1.77302	5.63212	0.409652
274.553	26.8519	1.76498	6.20406	0.407794
275.03	25.2673	1.52459	5.83793	0.352253
275.529	25.2379	1.59057	5.83113	0.367496
276.021	25.8796	1.63208	5.97941	0.377086
276.515	25.5891	1.45297	5.91228	0.335705
277	25.3905	1.83833	5.86639	0.42474
277.529	25.6383	1.68801	5.92365	0.390009
278.048	26.3728	1.65775	6.09336	0.383019
278.544	26.6799	1.53666	6.16431	0.355042
279.043	28.1015	1.83703	6.49277	0.424439
279.53	27.0816	1.75538	6.25712	0.405575
280.042	28.1977	2.05859	6.515	0.475631
280.533	26.9615	1.64187	6.22937	0.37935
281.706	28.3055	1.6109	6.5399	0.372193
282.012	28.1983	2.27933	6.51513	0.526633
282.509	27.8732	1.64418	6.44002	0.379882
283.061	27.7596	1.76235	6.41376	0.407186
283.584	28.9752	1.61266	6.69464	0.3726
284.056	26.5411	1.65702	6.13224	0.38285
284.552	29.0134	2.00814	6.70345	0.463975
285	28.9466	1.84883	6.68802	0.427167
285.561	31.3218	1.86871	7.2368	0.431759
286.016	31.5791	1.82896	7.29627	0.422577
286.513	29.6033	1.76876	6.83975	0.408668
287.018	27.9462	1.76927	6.45688	0.408785
287.522	30.4484	1.83428	7.03501	0.423804
288.019	30.7052	2.15145	7.09435	0.497085
288.503	31.1327	1.42767	7.19311	0.32986
289.005	29.7491	1.62994	6.87344	0.376592
289.545	30.2697	1.97161	6.99373	0.455534
290.027	31.5154	1.97009	7.28154	0.455183
290.508	30.8663	1.87523	7.13157	0.433267
291.024	28.6478	1.89254	6.61898	0.437267
292.161	31.6272	1.71189	7.30736	0.395527
292.523	31.9835	2.00808	7.3897	0.46396
293.065	31.2227	1.68002	7.2139	0.388165
293.568	32.2121	1.77044	7.44251	0.409056
294.021	31.3926	1.99473	7.25318	0.460877
294.56	30.9704	1.59608	7.15561	0.368769
295.042	28.8577	1.65718	6.66748	0.382887
295.506	29.2872	1.8894	6.76671	0.436541
296.041	31.4859	1.43129	7.27473	0.330694
296.503	32.1997	1.76113	7.43964	0.406904
297.053	32.5499	1.83206	7.52056	0.423293
297.542	30.4102	1.68306	7.02618	0.388867
298.02	31.9353	1.59279	7.37857	0.368009
298.511	30.7358	1.73353	7.10141	0.400526
299.042	31.9994	2.21351	7.39337	0.511426
299.506	32.2832	2.23647	7.45894	0.51673
300.052	31.0941	1.8326	7.18419	0.423416
300.52	31.003	1.61141	7.16316	0.372312
301.033	30.9787	2.17574	7.15753	0.502698
301.524	31.5601	2.23147	7.29187	0.515576
302.598	31.4193	1.9646	7.25934	0.453915
303.041	29.4884	1.74232	6.8132	0.402559
303.54	31.4506	1.72877	7.26657	0.399426
304.061	32.8351	1.65008	7.58646	0.381246
304.521	30.5973	1.82691	7.06941	0.422102
305.023	31.7084	1.76767	7.32613	0.408414
305.522	33.4159	1.94334	7.72065	0.449002
306.071	32.4351	1.96925	7.49404	0.454989
306.582	33.873	1.97727	7.82625	0.456843
307.008	31.453	1.56672	7.26712	0.361987
307.5	33.6207	1.9274	7.76795	0.445319
308.062	35.2842	1.67476	8.15232	0.386949
308.547	31.4022	1.66703	7.25539	0.385162
309.064	31.3953	2.1059	7.25379	0.486563
309.549	33.1557	1.62854	7.66054	0.376269
310.043	30.1668	1.90797	6.96994	0.440831
310.521	29.3687	1.72976	6.78554	0.399656
311.068	29.4502	2.1081	6.80438	0.48707
311.502	32.6	1.88787	7.53214	0.436188
312.001	32.0445	1.6361	7.40378	0.378017
312.932	31.3729	1.58475	7.24862	0.366152
313.064	33.0535	1.64466	7.6369	0.379995
313.565	32.8023	1.69704	7.57888	0.392095
314.016	30.6722	1.78735	7.08672	0.412963
314.533	31.9911	1.98368	7.39146	0.458323
315.002	32.1414	2.10014	7.42618	0.485232
315.531	31.7964	1.79439	7.34646	0.414589
316.057	30.0375	1.68971	6.94008	0.390402
316.512	33.7405	1.66528	7.79564	0.384759
317.048	32.2807	2.11627	7.45835	0.488959
317.552	31.8506	1.69968	7.35898	0.392706
318.024	33.6965	1.81211	7.78548	0.418682
318.516	33.3666	1.83083	7.70925	0.423007
319.02	30.071	1.51746	6.9478	0.350604
319.506	32.2393	1.60721	7.4488	0.371341
320.04	32.0156	1.92697	7.39712	0.44522
320.53	29.9411	1.37517	6.9178	0.317729
321.047	31.5841	1.98743	7.29742	0.459189
321.524	30.0511	2.13269	6.94322	0.492752
322.035	28.9567	2.19019	6.69036	0.506037
323.351	31.6501	1.7848	7.31266	0.412372
323.508	30.7318	1.89463	7.1005	0.437749
324.034	30.8995	1.98619	7.13924	0.458903
324.517	32.0115	1.80385	7.39616	0.416773
325.012	31.329	2.20693	7.23848	0.509905
325.52	33.6324	1.82489	7.77067	0.421636
326.012	30.6826	1.67981	7.08912	0.388114
326.543	32.4583	2.41976	7.49939	0.559077
327.003	31.2439	2.01498	7.21881	0.465556
327.508	31.497	1.86409	7.2773	0.430692
328.01	32.9835	1.63491	7.62075	0.377741
328.538	32.9652	1.861	7.61651	0.429978
329.047	30.9285	1.92455	7.14594	0.444662
329.517	30.8466	1.88008	7.12701	0.434386
330.01	31.6675	2.02027	7.31668	0.466777
330.513	31.8098	1.71619	7.34957	0.39652
331.037	29.8158	1.61885	6.88886	0.37403
331.503	31.1718	1.79246	7.20215	0.414142
332.024	31.7482	1.64985	7.33532	0.381192
332.502	30.2577	1.60063	6.99096	0.369821
333.76	31.5269	1.61667	7.28419	0.373527
334.012	30.3761	1.71662	7.01831	0.39662
334.5	30.9765	1.9689	7.15702	0.454909
335.054	28.0511	1.9026	6.48112	0.439589
335.502	30.0331	1.82834	6.93905	0.422431
336.046	30.6412	2.41221	7.07957	0.557334
336.545	32.0358	1.96782	7.40178	0.454659
337.042	30.3342	2.06261	7.00864	0.47656
337.549	32.5794	1.91757	7.52737	0.443049
338.047	28.8132	2.1273	6.6572	0.491506
338.548	30.4511	2.09716	7.03563	0.484543
339.028	32.3185	1.87694	7.46709	0.433662
339.537	29.7169	2.1584	6.86601	0.498692
340.042	30.2234	2.19486	6.98303	0.507117
340.515	28.124	2.20134	6.49796	0.508614
341.009	30.7664	1.64608	7.10849	0.380323
341.501	32.8404	1.87378	7.58768	0.432931
342.028	30.3106	1.69943	7.00317	0.392647
342.513	28.7747	2.01532	6.6483	0.465635
343.051	31.1234	2.04567	7.19096	0.472646
344.251	28.8459	1.80303	6.66476	0.416586
344.528	30.4914	1.66649	7.04495	0.385037
345.032	29.4468	2.23954	6.80359	0.517439
345.513	28.4	1.94286	6.56174	0.448891
346.015	27.1602	2.21614	6.27528	0.512034
346.526	27.8931	1.82025	6.44462	0.420562
347.014	30.7833	2.06145	7.1124	0.476293
347.509	27.4479	2.15995	6.34176	0.49905
348.054	28.3741	1.65289	6.55576	0.381895
348.53	30.6001	1.83993	7.07005	0.425111
349.003	28.4084	2.34726	6.56367	0.542327
349.501	27.9269	1.79821	6.45243	0.415471
349.751	28.3618	1.58096	6.55292	0.365275