File: data/monolayers/nanoparticles/Ac_CoFe_C/vsm/Backup/AH11_350K_LangevinSAXSscaled.xye
#Executed at: 2018-11-15 15:45:37.2565
#Loaded File	 = ../rawdata/DD226_2_HYST_350K_REPEAT.DAT
#Rescale Factor	 = 4.32812
#[[Data]]
#B/T	M/kAm-1	sM/kAm-1	M_raw/memu	sM_raw/memu
1.5985e-05	-2.37261	2.03982	-0.548185	0.471295
0.0222789	38.6852	2.25927	8.9381	0.521999
0.0509877	63.0308	2.06387	14.5631	0.47685
0.0811523	71.0072	2.30604	16.406	0.532804
0.111068	75.6021	1.85556	17.4676	0.428721
0.138245	82.2102	2.41069	18.9944	0.556983
0.168151	81.596	2.20436	18.8525	0.509311
0.199581	83.0573	2.29444	19.1901	0.530124
0.229975	81.068	2.29553	18.7305	0.530376
0.26114	82.5655	2.20662	19.0765	0.509832
0.289821	84.0711	2.70993	19.4244	0.626121
0.323727	81.1746	2.37597	18.7552	0.54896
0.355879	79.8513	1.881	18.4494	0.434599
0.384282	78.0091	1.78364	18.0238	0.412105
0.424183	78.0229	2.18929	18.027	0.50583
0.454911	74.7701	2.52445	17.2754	0.583267
0.484841	71.6957	2.21168	16.5651	0.511001
0.517038	72.728	2.14799	16.8036	0.496288
0.551734	65.6233	2.30027	15.1621	0.531471
0.582684	64.8685	2.30501	14.9877	0.532565
0.61514	61.23	2.2338	14.147	0.516112
0.647884	57.8683	2.30435	13.3703	0.532412
0.678596	52.1018	2.17414	12.038	0.502329
0.704328	54.1107	2.46781	12.5021	0.57018
0.733072	46.7893	2.58959	10.8105	0.598317
0.758318	47.7408	2.19178	11.0304	0.506403
0.791262	41.8499	2.78116	9.6693	0.642578
0.82151	36.7616	2.50675	8.49366	0.579176
0.854236	32.9902	2.82042	7.62228	0.651649
0.884762	28.3982	2.65067	6.56131	0.61243
0.914297	22.9498	2.64795	5.30248	0.611802
0.950027	20.79	2.99158	4.80347	0.691196
0.980519	19.619	2.99619	4.5329	0.692261
1.01222	13.9822	2.34415	3.23054	0.541608
1.0382	8.01	3.08316	1.85069	0.712355
1.0722	5.76354	2.42912	1.33165	0.561242
1.10296	1.67181	3.0394	0.386267	0.702243
1.1329	-4.93576	2.90573	-1.14039	0.671361
1.16741	-8.37556	2.39002	-1.93515	0.552206
1.1994	-9.90055	2.31354	-2.28749	0.534537
1.22984	-18.3628	3.46003	-4.24267	0.799431
1.26033	-19.8236	3.25113	-4.58019	0.751164
1.29031	-23.6707	2.69795	-5.46904	0.623352
1.32082	-26.7262	2.429	-6.17501	0.561213
1.35282	-35.4416	4.00543	-8.18868	0.925444
1.38431	-38.7178	3.44903	-8.94563	0.796888
1.41901	-45.2803	2.61807	-10.4619	0.604897
1.45026	-51.6313	3.40788	-11.9293	0.78738
1.48374	-54.8352	3.14587	-12.6695	0.726844
1.51348	-59.105	3.30277	-13.656	0.763096
1.55071	-64.7202	3.898	-14.9534	0.900621
1.57968	-68.8985	3.11775	-15.9188	0.720348
1.61091	-72.0284	3.78154	-16.642	0.873714
1.64366	-76.6054	3.41323	-17.6995	0.788617
1.6799	-79.9207	2.8947	-18.4654	0.668811
1.71111	-83.4128	3.90367	-19.2723	0.901931
1.74109	-92.8387	3.93589	-21.4501	0.909375
1.77659	-91.9138	4.97995	-21.2364	1.1506
1.80659	-103.531	3.85992	-23.9206	0.891823
1.84107	-106.219	3.06085	-24.5416	0.707199
1.87754	-111.619	4.0118	-25.7894	0.926915
1.90801	-110.428	5.30253	-25.5141	1.22513
1.94075	-121.52	5.59158	-28.0768	1.29192
1.97548	-127.823	3.96937	-29.533	0.917112
2.00869	-126.925	3.99904	-29.3257	0.923965
2.03841	-137.688	4.49667	-31.8125	1.03894
2.07418	-136.94	5.69806	-31.6396	1.31652
2.10691	-146.891	5.47921	-33.9386	1.26595
2.14086	-147.879	3.59292	-34.167	0.830134
2.17436	-155.958	4.05008	-36.0336	0.935759
2.20585	-160.128	4.87015	-36.9972	1.12523
2.23936	-164.992	3.19212	-38.1208	0.73753
2.27483	-167.983	4.6477	-38.8119	1.07384
2.30584	-172.164	5.20833	-39.7779	1.20337
2.3388	-182.054	3.7819	-42.0631	0.873796
2.37029	-185.479	5.34085	-42.8543	1.23399
2.40453	-184.17	4.04971	-42.552	0.935673
2.43903	-194.85	4.10437	-45.0195	0.948302
2.47545	-201.184	5.72952	-46.4829	1.32379
2.50171	-208.506	4.76279	-48.1748	1.10043
2.53545	-214.57	4.45541	-49.5759	1.02941
2.56265	-213.801	5.18738	-49.3981	1.19853
2.59913	-223.975	4.95455	-51.7488	1.14473
2.63214	-223.951	6.21594	-51.7433	1.43617
2.65936	-227.041	5.58975	-52.4572	1.2915
2.68965	-235.421	5.97889	-54.3932	1.38141
2.72466	-238.306	4.47419	-55.0598	1.03375
2.75414	-247.114	5.29508	-57.0949	1.22341
2.78608	-253.071	4.11115	-58.4713	0.949869
2.82059	-251.775	4.15269	-58.1719	0.959466
2.85407	-257.466	5.4093	-59.4868	1.2498
2.8888	-261.614	4.94649	-60.445	1.14287
2.92553	-272.377	5.59381	-62.9318	1.29243
2.95625	-272.242	5.85585	-62.9007	1.35298
2.98852	-281.666	4.79003	-65.0782	1.10672
3.02445	-284.967	5.50836	-65.8407	1.27269
3.0557	-289.972	6.15979	-66.9972	1.4232
3.0887	-297.309	3.8096	-68.6923	0.880197
3.12169	-297.892	4.32191	-68.827	0.998565
3.15491	-303.746	5.5529	-70.1796	1.28298
3.18764	-312.419	5.27037	-72.1834	1.2177
3.21863	-318.314	6.4274	-73.5454	1.48503
3.2516	-322.735	6.95859	-74.567	1.60776
3.28137	-322.287	5.55633	-74.4633	1.28377
3.31583	-323.954	7.38678	-74.8485	1.70669
3.34984	-331.359	6.28705	-76.5595	1.4526
3.38778	-334.826	6.06091	-77.3606	1.40036
3.42223	-345.529	5.38693	-79.8335	1.24463
3.45601	-346.319	5.64035	-80.016	1.30319
3.49196	-355.834	6.68431	-82.2144	1.54439
3.52296	-360.554	6.78146	-83.3049	1.56684
3.55593	-367.324	8.27503	-84.8692	1.91192
3.58622	-367.797	4.80588	-84.9783	1.11038
3.61643	-378.524	6.04898	-87.4569	1.3976
3.64867	-379.318	5.09915	-87.6403	1.17814
3.6749	-392.313	6.82061	-90.6428	1.57588
3.70911	-392.776	7.58099	-90.7497	1.75157
3.73937	-397.626	7.26522	-91.8703	1.67861
3.77359	-402.897	6.14692	-93.0881	1.42023
3.80406	-398.773	7.88666	-92.1354	1.82219
3.84153	-406.753	6.19961	-93.9791	1.4324
3.88079	-423.041	7.06937	-97.7423	1.63336
3.91625	-424.725	8.30164	-98.1316	1.91807
3.95272	-429.175	7.85677	-99.1595	1.81528
3.98796	-436.05	5.91327	-100.748	1.36624
4.01901	-439.965	5.67533	-101.653	1.31127
4.04772	-445.006	5.43959	-102.817	1.2568
4.08169	-457.903	6.95076	-105.797	1.60595
4.11419	-452.899	6.84348	-104.641	1.58117
4.14864	-460.966	6.01982	-106.505	1.39086
4.1829	-460.283	6.84568	-106.347	1.58167
4.21311	-475.817	7.95796	-109.936	1.83866
4.24487	-477.004	6.10146	-110.21	1.40972
4.27786	-487.099	6.01508	-112.543	1.38977
4.31111	-478.112	6.63378	-110.466	1.53272
4.33905	-485.366	6.65906	-112.142	1.53856
4.37279	-496.58	5.53027	-114.733	1.27775
4.40475	-501.324	5.67171	-115.829	1.31043
4.434	-512.205	5.3481	-118.343	1.23566
4.47106	-507.462	6.65851	-117.248	1.53843
4.50282	-519.599	7.99926	-120.052	1.8482
4.53422	-522.514	7.08838	-120.725	1.63775
4.57175	-522.14	6.28521	-120.639	1.45218
4.60048	-532.004	9.37875	-122.918	2.16693
4.63016	-538.666	7.52891	-124.457	1.73953
4.65874	-542.355	6.92606	-125.31	1.60025
4.69163	-549.852	7.56362	-127.042	1.74755
4.72192	-548.025	5.38588	-126.62	1.24439
4.75361	-550.658	7.64414	-127.228	1.76615
4.78858	-548.542	7.09694	-126.739	1.63973
4.82033	-568.835	6.53916	-131.428	1.51085
4.85332	-573.39	9.83344	-132.48	2.27199
4.88606	-576.919	6.7174	-133.296	1.55204
4.92306	-581.312	6.88455	-134.31	1.59065
4.95331	-587.558	8.19282	-135.753	1.89293
4.98728	-595.539	8.13718	-137.598	1.88007
5.02272	-598.996	6.93025	-138.396	1.60121
5.053	-604.223	9.505	-139.604	2.1961
5.08724	-609.573	10.256	-140.84	2.36962
5.1202	-613.483	6.53301	-141.743	1.50943
5.15393	-615.257	9.11139	-142.153	2.10516
5.1859	-632.942	8.12597	-146.239	1.87748
5.21689	-632.152	10.8104	-146.057	2.4977
5.25061	-635.001	10.7585	-146.715	2.48571
5.28235	-641.021	8.58953	-148.106	1.98459
5.31509	-632.574	8.34503	-146.154	1.9281
5.34408	-653.199	7.46309	-150.92	1.72432
5.38103	-663.984	8.80397	-153.411	2.03413
5.4128	-662.15	7.29349	-152.988	1.68514
5.44702	-663.726	8.53864	-153.352	1.97283
5.48003	-665.327	8.08148	-153.722	1.8672
5.51576	-673.377	10.4557	-155.582	2.41576
5.55025	-683.523	8.29041	-157.926	1.91547
5.58171	-681.872	6.80624	-157.544	1.57256
5.61366	-683.664	8.67692	-157.959	2.00478
5.64267	-696.595	8.78621	-160.946	2.03003
5.6794	-707.381	8.00073	-163.438	1.84855
5.71035	-701.624	10.4621	-162.108	2.41723
5.74438	-712.071	6.85992	-164.522	1.58496
5.77713	-719.428	11.398	-166.222	2.63347
5.80736	-723.686	7.10724	-167.205	1.64211
5.83835	-719.557	10.9496	-166.252	2.52987
5.87283	-727.588	9.32946	-168.107	2.15554
5.90532	-734.19	6.64951	-169.632	1.53635
5.93677	-744.209	10.4971	-171.947	2.42533
5.9673	-740.677	11.2226	-171.131	2.59295
6.00053	-751.137	10.3634	-173.548	2.39443
6.03098	-756.01	8.60394	-174.674	1.98791
6.06523	-756.278	11.3754	-174.736	2.62825
6.09795	-762.046	8.6179	-176.069	1.99114
6.13264	-776.231	8.70421	-179.346	2.01108
6.16637	-791.463	10.5933	-182.865	2.44755
6.19489	-775.379	8.42887	-179.149	1.94747
6.2274	-788.263	10.8295	-182.126	2.50213
6.25794	-784.29	9.46563	-181.208	2.18701
6.29367	-798.627	9.01039	-184.52	2.08182
6.32768	-798.46	8.92649	-184.482	2.06244
6.36064	-817.591	10.8472	-188.902	2.50621
6.39237	-812.025	9.28098	-187.616	2.14434
6.42738	-829.648	9.17999	-191.688	2.12101
6.46133	-820.004	9.79889	-189.46	2.264
6.49305	-826.226	7.72913	-190.897	1.78579
6.52554	-847.859	8.80825	-195.895	2.03512
6.55878	-841.78	9.69549	-194.491	2.24011
6.58927	-837.279	9.93601	-193.451	2.29569
6.62123	-851.357	8.15999	-196.704	1.88534
6.65349	-858.67	8.28912	-198.393	1.91518
6.68748	-853.5	9.69752	-197.199	2.24058
6.724	-859.409	9.90561	-198.564	2.28866
6.75674	-871.716	9.59567	-201.407	2.21705
6.7897	-870.366	12.1778	-201.095	2.81363
6.82188	-875.718	11.0949	-202.332	2.56345
6.85239	-885.089	8.12195	-204.497	1.87655
6.88715	-886.482	10.6978	-204.819	2.4717
6.91812	-888.359	7.66909	-205.253	1.77192
6.94908	-894.957	9.9317	-206.777	2.29469
6.98635	-916.82	10.8844	-211.828	2.51481
7.01828	-916.107	9.37631	-211.664	2.16637
7.04856	-929.105	10.1692	-214.667	2.34956
7.08452	-928.977	11.0983	-214.637	2.56423
7.11726	-921.674	9.37183	-212.95	2.16533
7.15077	-931.59	10.9304	-215.241	2.52542
7.18198	-936.63	10.3873	-216.405	2.39995
7.21624	-953.235	8.797	-220.242	2.03252
7.24798	-953.304	11.9989	-220.258	2.7723
7.27996	-943.037	10.4266	-217.886	2.40905
7.31569	-933.8	9.87806	-215.752	2.2823
7.34643	-969.167	7.0786	-223.923	1.63549
7.37839	-980.596	9.02552	-226.564	2.08532
7.41014	-976.196	10.7155	-225.547	2.47579
7.44262	-975.874	9.54425	-225.473	2.20517
7.47685	-981.537	6.83461	-226.781	1.57912
7.51059	-991.817	11.042	-229.156	2.55122
7.54408	-1004.8	9.29103	-232.155	2.14667
7.57684	-995.013	10.9581	-229.895	2.53184
7.61033	-1015.8	10.6929	-234.697	2.47057
7.63907	-1015.79	12.3479	-234.695	2.85295
7.67433	-1010.36	9.85701	-233.44	2.27743
7.70454	-1015.3	8.14006	-234.581	1.88074
7.7395	-1034.75	11.4553	-239.075	2.64672
7.77176	-1037.89	13.774	-239.801	3.18243
7.80321	-1030.07	11.6063	-237.995	2.68159
7.83723	-1031.55	9.11741	-238.337	2.10655
7.87194	-1046.66	10.9188	-241.828	2.52276
7.90346	-1045.45	9.3334	-241.548	2.15646
7.93663	-1068.59	11.0604	-246.895	2.55547
7.96741	-1064.74	9.54649	-246.005	2.20569
8.0024	-1062.59	9.25784	-245.508	2.139
8.03495	-1068.31	10.5803	-246.831	2.44455
8.06742	-1079.08	9.25267	-249.318	2.1378
8.09741	-1090.23	12.0472	-251.894	2.78348
8.13091	-1101.51	8.37119	-254.5	1.93414
8.16263	-1105.53	12.6735	-255.429	2.92818
8.19486	-1092.04	10.8125	-252.313	2.49818
8.22837	-1100.32	10.0165	-254.225	2.31428
8.26059	-1103.37	12.6551	-254.93	2.92392
8.29158	-1107.26	10.8212	-255.829	2.50019
8.3228	-1128.03	12.1037	-260.629	2.79653
8.35305	-1122.67	9.00809	-259.39	2.08129
8.38651	-1127.27	11.2443	-260.451	2.59795
8.41028	-1134.11	10.9253	-262.033	2.52427
8.44725	-1121.02	11.37	-259.009	2.627
8.48103	-1127.91	10.3806	-260.6	2.39841
8.51249	-1136.26	12.2804	-262.529	2.83735
8.54375	-1161.1	11.762	-268.269	2.71758
8.57199	-1168.26	11.8209	-269.922	2.73118
8.60446	-1164.12	9.2629	-268.968	2.14017
8.6352	-1167.94	12.6816	-269.848	2.93005
8.66368	-1167.2	11.4202	-269.678	2.63859
8.69242	-1177.25	11.6754	-272	2.69756
8.72316	-1170.96	12.2577	-270.546	2.8321
8.75387	-1171.17	10.8029	-270.596	2.49598
8.78587	-1183.01	10.552	-273.33	2.43801
8.81186	-1189.27	9.82807	-274.776	2.27075
8.84311	-1186.15	10.8063	-274.057	2.49675
8.87184	-1202.74	13.3729	-277.888	3.08977
8.90332	-1212.27	9.88681	-280.091	2.28432
8.93807	-1211.34	10.8539	-279.877	2.50776
8.97158	-1215.18	12.1032	-280.763	2.7964
8.99996	-1215.2	11.6736	-280.768	2.69714
8.97653	-1218.06	12.6037	-281.43	2.91205
8.94736	-1222.21	8.72391	-282.388	2.01563
8.91844	-1220.27	12.049	-281.939	2.78389
8.88698	-1207.24	11.3332	-278.93	2.6185
8.8575	-1214.13	11.7283	-280.521	2.70979
8.82277	-1194.29	8.9966	-275.937	2.07864
8.79431	-1180.52	9.67314	-272.755	2.23495
8.76205	-1185.81	9.49203	-273.977	2.1931
8.7273	-1177.17	11.3029	-271.981	2.6115
8.69632	-1176.46	10.0536	-271.817	2.32285
8.66784	-1179.61	10.348	-272.546	2.39088
8.6356	-1177.19	12.607	-271.987	2.9128
8.60561	-1166.79	12.4042	-269.584	2.86596
8.57012	-1142.14	10.2268	-263.889	2.36288
8.54015	-1153.18	9.7691	-266.44	2.25712
8.50765	-1143.45	11.9026	-264.191	2.75006
8.47869	-1133.58	12.4403	-261.91	2.87429
8.44792	-1137	9.81568	-262.701	2.26788
8.41115	-1133.68	8.83208	-261.934	2.04062
8.37566	-1128.17	8.74525	-260.66	2.02056
8.34244	-1109.87	9.99091	-256.433	2.30837
8.31198	-1120.61	9.47849	-258.913	2.18998
8.27846	-1125.99	10.4125	-260.157	2.40577
8.24574	-1106.97	11.5185	-255.763	2.66131
8.21076	-1085.43	9.88228	-250.784	2.28327
8.17726	-1073.89	11.2555	-248.119	2.60056
8.14624	-1081.49	8.69713	-249.874	2.00945
8.11301	-1084.66	8.09948	-250.607	1.87136
8.08032	-1085.71	11.8246	-250.851	2.73204
8.04631	-1061.46	12.0292	-245.247	2.77931
8.01777	-1074.43	10.8902	-248.243	2.51616
7.98626	-1066.64	10.8182	-246.443	2.49952
7.9545	-1051.12	12.5916	-242.859	2.90926
7.92403	-1050.07	7.91189	-242.616	1.82802
7.89006	-1047.46	8.41615	-242.012	1.94453
7.85931	-1047.66	10.498	-242.058	2.42554
7.82781	-1049.35	11.2552	-242.449	2.60048
7.79482	-1022.94	10.4322	-236.347	2.41032
7.76258	-1025.32	8.04974	-236.898	1.85987
7.72736	-1019.38	10.7523	-235.524	2.48429
7.69709	-1018.07	8.67971	-235.222	2.00542
7.66313	-1003.79	8.78256	-231.923	2.02918
7.63216	-1017.43	11.3898	-235.073	2.63158
7.60239	-1000.81	9.22086	-231.234	2.13045
7.56538	-995.22	5.68613	-229.943	1.31376
7.53039	-996.646	8.87839	-230.272	2.05132
7.49714	-975.91	9.3064	-225.481	2.15021
7.46644	-976.254	9.64173	-225.561	2.22769
7.43418	-976.221	8.86834	-225.553	2.049
7.40366	-955.419	10.0511	-220.747	2.32228
7.37167	-961.243	10.7489	-222.092	2.48349
7.33872	-960.399	9.09414	-221.897	2.10117
7.30524	-968.993	10.2511	-223.883	2.36848
7.27073	-946.198	10.3222	-218.616	2.38492
7.24004	-941.233	7.75112	-217.469	1.79087
7.20852	-929.87	8.88925	-214.844	2.05383
7.17728	-935.181	7.75341	-216.071	1.7914
7.14179	-927.778	8.69179	-214.36	2.00821
7.1093	-928.897	9.08182	-214.619	2.09833
7.07681	-898.845	8.55006	-207.675	1.97547
7.04259	-906.904	7.13592	-209.538	1.64873
7.00859	-898.203	10.7558	-207.527	2.48509
6.97812	-909.001	10.1206	-210.022	2.33834
6.94561	-900.271	10.0206	-208.005	2.31524
6.91162	-889.546	10.0482	-205.527	2.32161
6.87915	-882.401	9.29529	-203.876	2.14765
6.84813	-870.28	8.7699	-201.076	2.02626
6.81395	-877.849	9.09217	-202.824	2.10072
6.7812	-881.788	8.82754	-203.734	2.03958
6.74848	-872.471	8.15252	-201.582	1.88361
6.71621	-859.792	6.57338	-198.652	1.51876
6.68298	-841.424	10.4148	-194.408	2.4063
6.64995	-850.694	8.51055	-196.55	1.96634
6.61797	-843.915	9.99195	-194.984	2.30861
6.58602	-849.582	7.60872	-196.293	1.75797
6.55654	-848.846	9.68818	-196.123	2.23843
6.52078	-818.694	8.80669	-189.157	2.03476
6.48881	-820.61	8.74454	-189.6	2.0204
6.45705	-811.857	10.7223	-187.577	2.47735
6.42133	-816.751	9.07055	-188.708	2.09572
6.38761	-810.18	7.25498	-187.19	1.67624
6.35336	-799.334	8.63354	-184.684	1.99475
6.32015	-788.272	9.97308	-182.128	2.30425
6.28315	-796.329	8.54983	-183.989	1.97541
6.25067	-798.346	7.66726	-184.455	1.7715
6.22063	-783.644	8.9791	-181.059	2.07459
6.18837	-777.829	8.11923	-179.715	1.87592
6.15816	-763.99	7.41715	-176.518	1.71371
6.12244	-760.766	7.27337	-175.773	1.68049
6.08946	-758.582	8.5111	-175.268	1.96647
6.05847	-761.475	7.85873	-175.936	1.81574
6.0282	-752.565	7.79163	-173.878	1.80023
5.99546	-745.073	10.0388	-172.147	2.31944
5.96128	-726.49	8.2476	-167.853	1.90558
5.92825	-732.003	7.27878	-169.127	1.68174
5.89428	-737.911	7.82322	-170.492	1.80753
5.85956	-732.153	9.21318	-169.162	2.12868
5.82707	-715.299	7.59114	-165.268	1.75391
5.79731	-699.798	8.39564	-161.686	1.93979
5.76656	-708.813	7.2949	-163.769	1.68547
5.73258	-707.779	6.52488	-163.53	1.50755
5.69906	-698.376	8.76618	-161.358	2.0254
5.66336	-694.974	8.8788	-160.572	2.05142
5.63115	-688.617	7.41544	-159.103	1.71331
5.59764	-675.444	9.16316	-156.059	2.11712
5.56891	-668.849	8.70106	-154.535	2.01035
5.53619	-670.617	7.69429	-154.944	1.77774
5.50419	-667.199	7.00348	-154.154	1.61813
5.47247	-672.559	9.95074	-155.393	2.29909
5.437	-658.13	9.37723	-152.059	2.16658
5.40601	-655.237	7.91179	-151.391	1.828
5.37401	-646.251	8.42101	-149.314	1.94565
5.34177	-644.635	7.37602	-148.941	1.70421
5.31052	-644.553	8.76054	-148.922	2.0241
5.27806	-637.638	7.68694	-147.324	1.77604
5.24557	-627.417	9.61758	-144.963	2.22211
5.21982	-622.905	5.43149	-143.92	1.25493
5.18564	-618.221	6.67076	-142.838	1.54126
5.15114	-605.222	7.83972	-139.835	1.81134
5.12091	-613.107	8.14805	-141.656	1.88258
5.09118	-607.603	6.59322	-140.385	1.52334
5.05447	-598.795	6.70153	-138.35	1.54837
5.02521	-601.778	7.96249	-139.039	1.83971
4.99297	-593.063	6.88957	-137.025	1.59182
4.96249	-571.038	6.73053	-131.937	1.55507
4.92923	-574.352	7.97352	-132.702	1.84226
4.89449	-583.389	7.50909	-134.79	1.73495
4.86347	-573.932	7.15178	-132.605	1.6524
4.83253	-566.54	6.24201	-130.897	1.4422
4.80202	-562.05	8.42528	-129.86	1.94664
4.7703	-555.484	8.27598	-128.343	1.91214
4.73707	-546.624	8.9442	-126.296	2.06653
4.7046	-545.675	8.9962	-126.077	2.07855
4.66587	-535.758	8.35027	-123.785	1.92931
4.63567	-531.737	7.8379	-122.856	1.81092
4.60367	-523.409	6.47552	-120.932	1.49615
4.57069	-528.258	9.60022	-122.052	2.2181
4.53995	-521.456	9.48068	-120.481	2.19048
4.50446	-507.265	7.22624	-117.202	1.6696
4.47148	-508.811	8.36257	-117.559	1.93215
4.43492	-497.282	6.10249	-114.895	1.40996
4.40795	-491.002	6.27119	-113.444	1.44894
4.37522	-487.28	6.11185	-112.585	1.41213
4.34326	-491.983	6.59566	-113.671	1.52391
4.30781	-479.938	6.35438	-110.888	1.46816
4.27478	-477.877	7.33689	-110.412	1.69517
4.24433	-469.582	6.71932	-108.496	1.55248
4.21258	-462.741	6.12967	-106.915	1.41624
4.18158	-469.457	5.64426	-108.467	1.30409
4.14909	-468.041	8.35622	-108.14	1.93068
4.11436	-458.657	7.94303	-105.971	1.83521
4.08687	-457.344	6.19995	-105.668	1.43248
4.05367	-443.129	7.06216	-102.384	1.63169
4.02318	-432.987	6.68507	-100.04	1.54456
3.99216	-435.636	5.08264	-100.652	1.17433
3.96042	-429.062	5.75143	-99.1336	1.32885
3.92545	-435.023	6.05882	-100.511	1.39987
3.89196	-420.003	5.7396	-97.0404	1.32612
3.86049	-414.293	4.50261	-95.7211	1.04031
3.828	-408.315	6.04393	-94.34	1.39643
3.79954	-398.626	6.25266	-92.1013	1.44466
3.7668	-401.272	6.2991	-92.7128	1.45539
3.73079	-400.346	6.07317	-92.4988	1.40319
3.69806	-395.281	6.72824	-91.3286	1.55454
3.66486	-383.363	6.61172	-88.575	1.52762
3.63663	-383.744	6.47064	-88.6628	1.49502
3.60191	-374.702	4.46105	-86.5738	1.03071
3.56919	-371.835	5.65825	-85.9113	1.30732
3.53416	-368.771	4.09101	-85.2035	0.945217
3.50692	-363.498	6.8351	-83.985	1.57923
3.47345	-357.207	5.2908	-82.5316	1.22242
3.4395	-346.893	5.88204	-80.1487	1.35903
3.40545	-345.905	4.75967	-79.9203	1.09971
3.37278	-340.978	4.97508	-78.782	1.14948
3.34227	-343.388	4.6276	-79.3388	1.06919
3.30905	-332.546	4.38685	-76.8337	1.01357
3.27583	-320.08	6.21359	-73.9535	1.43563
3.24783	-317.733	5.2465	-73.4113	1.21219
3.21389	-312.777	4.76491	-72.2663	1.10092
3.1844	-309.903	4.14288	-71.6021	0.9572
3.15239	-306.317	4.54609	-70.7736	1.05036
3.11989	-305.258	5.11914	-70.529	1.18276
3.08266	-297.2	4.88165	-68.6671	1.12789
3.05664	-290.767	5.95115	-67.1809	1.375
3.02496	-281.312	4.42786	-64.9963	1.02304
2.99422	-274.329	4.96863	-63.3829	1.14799
2.96249	-275.355	6.14529	-63.6199	1.41985
2.93051	-271.133	4.93489	-62.6445	1.14019
2.901	-267.863	4.04779	-61.8889	0.935229
2.87253	-270.114	4.70938	-62.4091	1.08809
2.84031	-264.088	4.60578	-61.0168	1.06415
2.81083	-252.712	4.26732	-58.3884	0.985951
2.78358	-252.709	4.5844	-58.3876	1.05921
2.75463	-247.643	4.56806	-57.2171	1.05544
2.72485	-243.099	4.93503	-56.1672	1.14022
2.6939	-235.696	4.85201	-54.4569	1.12104
2.66335	-233.364	4.91647	-53.9181	1.13594
2.63435	-226.788	4.12929	-52.3988	0.954061
2.60135	-219.607	4.46048	-50.7395	1.03058
2.57063	-215.752	4.2618	-49.8488	0.984676
2.53741	-210.732	3.15865	-48.6891	0.729796
2.50492	-208.772	3.68236	-48.2361	0.850798
2.47171	-203.635	4.61077	-47.0493	1.0653
2.43874	-195.517	5.38393	-45.1735	1.24394
2.409	-191.001	4.30529	-44.1301	0.994724
2.3735	-187.012	3.94197	-43.2086	0.91078
2.34254	-181.784	5.52868	-42.0006	1.27739
2.30556	-176.047	4.37927	-40.6752	1.01182
2.27235	-172.386	4.27656	-39.8294	0.988087
2.23809	-164.793	4.47646	-38.0749	1.03427
2.20556	-165.207	4.20579	-38.1706	0.971734
2.17309	-159.319	3.81446	-36.8102	0.88132
2.13784	-150.805	3.81004	-34.843	0.880297
2.10689	-143.499	3.10845	-33.155	0.718199
2.07491	-140.803	4.52844	-32.5321	1.04628
2.04417	-136.648	4.09979	-31.5721	0.947243
2.01269	-131.264	3.60034	-30.3281	0.831849
1.97749	-124.956	3.96017	-28.8706	0.914984
1.94624	-123.235	4.17299	-28.473	0.964157
1.91423	-120.116	4.55764	-27.7524	1.05303
1.8803	-110.45	4.12698	-25.5191	0.953526
1.8483	-102.37	4.29543	-23.6524	0.992446
1.81658	-102.815	4.61947	-23.7551	1.06731
1.78509	-100.608	4.16041	-23.2451	0.961249
1.75459	-96.1521	4.16707	-22.2157	0.96279
1.72363	-91.677	3.73672	-21.1817	0.863357
1.69265	-86.7246	3.62193	-20.0375	0.836837
1.66443	-81.6023	3.12864	-18.854	0.722862
1.63169	-69.303	3.5306	-16.0123	0.815734
1.6002	-73.3209	3.092	-16.9406	0.714398
1.57171	-63.963	3.32187	-14.7785	0.767509
1.53798	-59.1266	2.76974	-13.661	0.639941
1.50575	-59.7532	3.07472	-13.8058	0.710405
1.47078	-53.9673	2.58924	-12.469	0.598236
1.44005	-44.3092	3.01465	-10.2375	0.696527
1.40731	-40.2354	3.81258	-9.29626	0.880886
1.37309	-35.4531	3.27999	-8.19132	0.757833
1.34208	-35.0172	2.96431	-8.09062	0.684894
1.31058	-28.7705	3.16014	-6.64733	0.73014
1.27558	-21.9294	2.28881	-5.06673	0.528823
1.24335	-21.4782	3.45561	-4.96248	0.798408
1.2109	-15.8312	2.38349	-3.65776	0.550699
1.18367	-7.90529	2.3513	-1.82649	0.54326
1.15043	-7.39096	3.02745	-1.70766	0.699484
1.11694	-0.854991	3.13199	-0.197543	0.723637
1.08495	2.44354	2.81939	0.564573	0.651411
1.05499	6.56405	2.59651	1.51661	0.599916
1.02473	13.5209	2.3842	3.12397	0.550862
0.989286	16.9887	2.60958	3.92518	0.602936
0.957551	20.1744	3.04146	4.66123	0.70272
0.925327	24.4449	3.06421	5.64791	0.707977
0.895082	30.056	2.72381	6.94436	0.629327
0.86302	33.7699	2.56961	7.80244	0.593702
0.82831	37.24	2.98013	8.6042	0.688549
0.795798	42.5307	2.59651	9.82658	0.599917
0.766336	45.3713	2.82723	10.4829	0.653222
0.734339	49.4949	2.70999	11.4357	0.626135
0.697121	51.8266	2.77687	11.9744	0.641587
0.667402	57.2044	2.87046	13.2169	0.663212
0.63544	59.8226	2.41998	13.8218	0.559128
0.605416	63.8142	1.87869	14.7441	0.434066
0.57421	67.2485	2.37768	15.5376	0.549357
0.542738	69.6115	2.36159	16.0835	0.545639
0.51248	74.8276	2.64216	17.2887	0.610464
0.481503	74.5739	2.52068	17.2301	0.582395
0.452019	78.2172	2.49626	18.0718	0.576754
0.415739	79.905	2.07345	18.4618	0.479065
0.382226	79.7558	2.19254	18.4273	0.50658
0.353244	80.7638	1.79392	18.6602	0.41448
0.320031	84.7923	2.31413	19.591	0.534672
0.291052	87.1046	2.1438	20.1253	0.495319
0.257545	87.3012	1.64214	20.1707	0.379411
0.22579	85.0304	2.07483	19.646	0.479384
0.196336	84.4861	1.9244	19.5203	0.444628
0.162819	86.0027	2.06987	19.8707	0.478237
0.135565	83.8515	2.14965	19.3736	0.49667
0.104066	77.2659	2.264	17.8521	0.523091
0.0708459	74.6496	2.19927	17.2476	0.508134
0.0411002	64.505	2.14003	14.9037	0.494448
0.00962596	21.7668	2.14537	5.02915	0.495681
-0.0188812	-35.6412	2.0274	-8.23478	0.468424
-0.0495713	-63.1005	1.84068	-14.5792	0.425284
-0.0794813	-73.2322	2.24404	-16.9201	0.518478
-0.108404	-77.971	2.2036	-18.015	0.509136
-0.139815	-84.0298	1.98302	-19.4148	0.45817
-0.170223	-82.8272	1.86989	-19.137	0.432033
-0.202365	-85.2235	2.71615	-19.6906	0.627559
-0.234036	-85.1655	2.08502	-19.6772	0.481739
-0.263992	-84.1192	2.50513	-19.4355	0.578803
-0.294194	-82.5273	1.75666	-19.0677	0.405871
-0.324963	-85.1639	2.20715	-19.6769	0.509954
-0.35571	-83.3974	2.37904	-19.2687	0.549671
-0.388761	-78.5158	2.16575	-18.1408	0.50039
-0.41952	-76.635	2.1791	-17.7063	0.503475
-0.453289	-75.5814	2.26776	-17.4628	0.523958
-0.483577	-74.1797	2.37939	-17.139	0.549751
-0.515033	-70.7267	2.405	-16.3412	0.555668
-0.545042	-67.6719	2.72887	-15.6354	0.630497
-0.575014	-65.0445	2.74915	-15.0283	0.635183
-0.604767	-62.2365	2.58775	-14.3796	0.597892
-0.634495	-60.397	2.72821	-13.9546	0.630345
-0.669507	-57.0894	2.11702	-13.1903	0.48913
-0.701722	-53.1762	2.97394	-12.2862	0.687121
-0.730722	-48.2712	2.95722	-11.1529	0.683258
-0.764195	-44.9449	3.30064	-10.3844	0.762602
-0.793422	-39.5482	2.61912	-9.1375	0.605141
-0.82766	-36.2417	3.9123	-8.37353	0.903926
-0.860407	-34.5431	3.17585	-7.98109	0.733771
-0.894922	-28.8414	3.75862	-6.66372	0.868419
-0.926922	-25.2634	3.75961	-5.83704	0.868646
-0.95118	-20.7318	2.89373	-4.79001	0.668587
-0.989401	-14.5943	3.02335	-3.37197	0.698535
-1.02163	-11.057	2.48068	-2.55468	0.573154
-1.05035	-8.88815	2.70924	-2.05358	0.625962
-1.08811	-0.832618	3.08933	-0.192374	0.713781
-1.11835	1.90548	2.88542	0.440255	0.666668
-1.15082	7.55139	3.65301	1.74473	0.844016
-1.18381	10.9524	2.83321	2.53053	0.654605
-1.21478	14.0752	3.00796	3.25203	0.694979
-1.24501	18.0199	2.54081	4.16344	0.587046
-1.27574	26.0406	3.60007	6.01661	0.831785
-1.30899	29.0151	3.53569	6.70384	0.81691
-1.33947	35.3625	3.68435	8.17041	0.851257
-1.37323	39.2586	3.51634	9.07059	0.812441
-1.40547	47.4265	3.38784	10.9577	0.782751
-1.43896	51.8211	3.3854	11.9731	0.782186
-1.47493	52.3764	3.69244	12.1014	0.853127
-1.50843	56.8966	4.33994	13.1458	1.00273
-1.5419	61.2425	3.84774	14.1499	0.889009
-1.5706	65.0064	3.32233	15.0195	0.767614
-1.60711	71.5926	3.21663	16.5412	0.743193
-1.63554	82.0639	4.24842	18.9606	0.981586
-1.66681	77.4739	4.02494	17.9001	0.929951
-1.69901	88.9195	3.99752	20.5446	0.923616
-1.72978	90.4474	4.25165	20.8976	0.982331
-1.76572	98.5421	4.02551	22.7679	0.930082
-1.79797	99.1333	3.9331	22.9044	0.90873
-1.8312	108.668	3.93915	25.1073	0.910128
-1.86319	112.93	4.23141	26.0921	0.977654
-1.89666	112.127	4.60013	25.9067	1.06285
-1.93117	122.215	3.88658	28.2375	0.897983
-1.95913	127.597	5.5988	29.481	1.29359
-1.99335	131.814	3.39648	30.4551	0.784747
-2.02732	135.04	5.22724	31.2007	1.20774
-2.05908	137.384	5.02318	31.7422	1.16059
-2.0908	144.684	4.71591	33.4289	1.0896
-2.12153	149.295	4.88638	34.4941	1.12898
-2.15549	157.645	5.06038	36.4234	1.16919
-2.19346	162.96	5.00573	37.6515	1.15656
-2.23124	167.739	4.31663	38.7556	0.997345
-2.25973	172.627	6.33922	39.8851	1.46466
-2.29298	173.95	5.71427	40.1905	1.32027
-2.33168	183.073	4.71116	42.2985	1.0885
-2.36665	182.337	5.12283	42.1285	1.18361
-2.39915	193.925	5.5659	44.8057	1.28599
-2.43537	197.864	6.15357	45.7159	1.42176
-2.46711	203.105	4.87474	46.9268	1.12629
-2.49608	206.346	6.10467	47.6756	1.41047
-2.53481	215.21	6.10686	49.7235	1.41097
-2.56703	213.359	5.43994	49.2959	1.25688
-2.60322	224.052	4.43213	51.7665	1.02403
-2.63727	223.204	5.76463	51.5706	1.3319
-2.66973	234.559	5.09272	54.1941	1.17666
-2.70051	233.525	6.4531	53.9552	1.49097
-2.73801	244.903	6.25592	56.5841	1.44541
-2.7697	249.366	6.02824	57.6152	1.39281
-2.80271	255.736	4.69305	59.0871	1.08432
-2.83844	264.672	6.40562	61.1517	1.48
-2.86914	263.527	5.35209	60.8871	1.23658
-2.90337	267.2	5.15298	61.7357	1.19058
-2.93437	274.426	7.14305	63.4053	1.65038
-2.96809	280.535	6.61369	64.8167	1.52807
-3.00035	282.897	6.69265	65.3624	1.54632
-3.03176	290.495	5.49745	67.118	1.27017
-3.06728	298.662	5.39421	69.005	1.24632
-3.0972	299.053	4.89497	69.0953	1.13097
-3.13325	297.427	5.74219	68.7196	1.32672
-3.16823	309.473	5.4939	71.5028	1.26935
-3.20494	313.693	4.9433	72.4778	1.14213
-3.23872	321.218	6.52328	74.2164	1.50718
-3.27292	323.086	6.32765	74.6481	1.46198
-3.30716	331.476	6.81948	76.5865	1.57562
-3.33916	337.984	6.30578	78.0902	1.45693
-3.37464	343.932	6.85225	79.4646	1.58319
-3.40609	347.553	7.10512	80.3011	1.64162
-3.44179	352.613	8.09663	81.4701	1.8707
-3.47278	361.342	7.16942	83.4869	1.65647
-3.50727	366.391	6.99968	84.6535	1.61725
-3.53951	371.989	7.26146	85.947	1.67774
-3.56971	372.425	7.70048	86.0476	1.77917
-3.60622	373.329	7.12892	86.2567	1.64711
-3.64192	377.981	7.02262	87.3314	1.62256
-3.67863	392.214	5.79413	90.6199	1.33872
-3.71213	396.217	7.06341	91.5448	1.63198
-3.74539	391.966	7.6707	90.5626	1.77229
-3.77869	406.166	6.78353	93.8435	1.56731
-3.81162	414.089	6.78754	95.674	1.56824
-3.84681	415.622	8.93531	96.0283	2.06448
-3.87831	421.418	7.01434	97.3674	1.62064
-3.91725	424.454	8.05384	98.0687	1.86082
-3.94772	424.277	8.67062	98.0279	2.00332
-3.97974	438.861	7.3461	101.397	1.69729
-4.01344	445.345	6.8641	102.896	1.58593
-4.04772	447.135	7.02165	103.309	1.62233
-4.07921	449.586	6.36515	103.875	1.47065
-4.11317	455.394	6.31238	105.217	1.45846
-4.14691	465.795	7.52509	107.621	1.73865
-4.17762	470.91	6.58148	108.802	1.52063
-4.21465	469.699	8.52908	108.522	1.97062
-4.24937	477.381	6.25832	110.298	1.44597
-4.28608	486.786	6.20269	112.47	1.43311
-4.31857	494.158	8.83508	114.174	2.04132
-4.35303	496.708	8.11026	114.763	1.87385
-4.38704	497.472	5.81844	114.939	1.34433
-4.42053	502.11	7.75045	116.011	1.79072
-4.45399	515.347	5.91906	119.069	1.36758
-4.48851	517.488	7.22201	119.564	1.66862
-4.52652	518.483	7.40909	119.794	1.71185
-4.55746	518.11	6.80065	119.708	1.57127
-4.58948	532.59	9.10469	123.053	2.10361
-4.62245	543.788	8.75916	125.641	2.02378
-4.65867	544.816	6.05133	125.878	1.39814
-4.69268	544.098	11.5393	125.712	2.66613
-4.73312	558.024	8.79431	128.93	2.0319
-4.76585	569.517	11.054	131.585	2.55398
-4.7993	565.008	7.46848	130.543	1.72557
-4.83706	569.387	6.61041	131.555	1.52732
-4.86975	578.516	8.41939	133.664	1.94527
-4.90052	588.923	8.0204	136.069	1.85309
-4.93252	590.618	9.03843	136.46	2.0883
-4.95977	596.456	7.08474	137.809	1.63691
-4.99749	593.799	10.0757	137.195	2.32796
-5.03221	605.756	8.9344	139.958	2.06427
-5.06469	605.77	9.71114	139.961	2.24373
-5.09741	610.451	9.20919	141.043	2.12776
-5.13439	618.298	8.18109	142.856	1.89022
-5.16837	622.806	9.66354	143.897	2.23273
-5.20334	628.435	8.19582	145.198	1.89362
-5.23632	633.896	8.61551	146.46	1.99059
-5.26829	635.115	8.79027	146.741	2.03097
-5.30501	638.66	10.8102	147.56	2.49766
-5.34094	648.127	9.12793	149.748	2.10898
-5.37798	659.857	9.36565	152.458	2.16391
-5.41043	659.73	6.17205	152.429	1.42603
-5.44542	660.56	9.49214	152.62	2.19313
-5.4819	675.007	10.2732	155.958	2.37358
-5.51593	681.515	10.1804	157.462	2.35214
-5.54612	672.694	8.79011	155.424	2.03093
-5.58162	680.559	10.2602	157.241	2.37058
-5.61535	690.985	9.35556	159.65	2.16157
-5.64833	695.434	9.78737	160.678	2.26134
-5.6848	702.988	7.04007	162.423	1.62659
-5.71627	709.57	10.1685	163.944	2.3494
-5.74976	711.017	8.88568	164.278	2.05301
-5.78825	724.979	11.7794	167.504	2.72161
-5.82199	715.173	10.8501	165.239	2.50689
-5.85275	728.995	10.8807	168.432	2.51394
-5.88848	737.793	11.3119	170.465	2.61358
-5.92068	745.98	9.13219	172.357	2.10996
-5.95441	748.943	11.7153	173.041	2.70678
-5.99093	755.008	9.27469	174.442	2.14289
-6.02387	758.976	9.68946	175.359	2.23872
-6.05611	760.657	9.86299	175.748	2.27881
-6.0901	770.076	8.47781	177.924	1.95877
-6.12332	772.396	10.3356	178.46	2.38801
-6.15404	770.907	10.0975	178.116	2.33301
-6.18651	783.86	7.72473	181.108	1.78478
-6.22	789.849	9.74423	182.492	2.25137
-6.2518	798.474	10.2514	184.485	2.36855
-6.28777	808.065	11.4772	186.701	2.65178
-6.32453	806.686	10.0485	186.382	2.32168
-6.36048	808.634	7.79327	186.832	1.80061
-6.3932	823.899	9.52239	190.359	2.20012
-6.42666	823.522	11.8588	190.272	2.73993
-6.46142	828.618	7.86419	191.45	1.817
-6.49538	822.183	9.66301	189.963	2.23261
-6.52711	841.507	10.2175	194.428	2.36072
-6.56409	851.391	12.4135	196.711	2.8681
-6.59457	848.205	9.69028	195.975	2.23891
-6.62703	844.823	10.7948	195.194	2.49411
-6.65901	853.446	8.23625	197.186	1.90296
-6.69227	865.297	10.037	199.924	2.31903
-6.72579	867.586	10.8452	200.453	2.50575
-6.75752	876.561	8.45971	202.527	1.95459
-6.79122	868.691	9.08358	200.709	2.09873
-6.82493	881.953	11.7023	203.773	2.70379
-6.85667	880.958	10.2832	203.543	2.3759
-6.88841	887.696	11.1173	205.1	2.56862
-6.92285	895.915	11.3372	206.998	2.61942
-6.9566	911.751	12.1125	210.657	2.79857
-6.98658	907.237	10.6744	209.615	2.46628
-7.02407	916.46	11.6763	211.745	2.69776
-7.05627	913.885	11.0891	211.151	2.56211
-7.08576	931.406	9.05586	215.199	2.09233
-7.12076	936.052	10.248	216.272	2.36776
-7.15398	933.252	11.6274	215.625	2.68647
-7.18771	932.945	12.3353	215.554	2.85003
-7.22319	949.846	9.47104	219.459	2.18826
-7.25665	956.669	10.6833	221.035	2.46834
-7.28938	963.568	11.2905	222.629	2.60864
-7.32237	960.622	10.4718	221.949	2.41947
-7.35836	969.532	12.2921	224.008	2.84005
-7.39009	980.827	9.7205	226.617	2.24589
-7.42555	982.166	13.0774	226.927	3.0215
-7.4598	983.825	8.18937	227.31	1.89213
-7.49451	983.036	11.3349	227.127	2.6189
-7.52726	992.816	13.2366	229.387	3.05827
-7.56248	1006.21	11.9177	232.481	2.75354
-7.59598	1012.53	8.61051	233.943	1.98943
-7.63022	1007.51	9.4468	232.783	2.18266
-7.66792	1020.18	9.61169	235.709	2.22075
-7.70038	1018.81	12.7392	235.393	2.94336
-7.73237	1028.86	9.69909	237.714	2.24095
-7.7686	1030.54	10.7178	238.104	2.47633
-7.80057	1023.33	9.84671	236.437	2.27505
-7.83107	1043.07	10.2706	240.999	2.37299
-7.87178	1054.43	12.162	243.624	2.81
-7.90504	1055.83	11.5506	243.947	2.66874
-7.94048	1058.82	8.65036	244.638	1.99864
-7.97821	1074.19	13.4193	248.188	3.10049
-8.01744	1069.86	10.8564	247.189	2.50834
-8.04923	1074	10.9428	248.144	2.5283
-8.08247	1079.87	10.9078	249.501	2.52021
-8.11297	1089.95	13.2495	251.83	3.06126
-8.14616	1097.97	15.7527	253.683	3.63961
-8.18039	1099.22	10.2899	253.971	2.37745
-8.21162	1099.72	12.2407	254.087	2.82818
-8.24585	1100.37	14.1149	254.237	3.2612
-8.28482	1106.6	8.59594	255.676	1.98607
-8.31605	1117.76	9.45681	258.256	2.18497
-8.34951	1121.51	11.9143	259.121	2.75277
-8.38248	1134.2	9.91346	262.054	2.29047
-8.4202	1144.13	11.1164	264.348	2.56841
-8.45045	1142.79	14.4091	264.038	3.32918
-8.48547	1141.8	9.69395	263.81	2.23976
-8.51521	1150.48	9.41231	265.815	2.17469
-8.54594	1160.92	13.8586	268.227	3.20199
-8.58413	1160.78	10.4877	268.195	2.42315
-8.61887	1163.53	10.7728	268.83	2.48902
-8.6496	1166.51	12.9987	269.519	3.00331
-8.68005	1178.59	12.4856	272.309	2.88477
-8.71303	1178.39	11.9	272.262	2.74946
-8.74277	1188.27	10.3712	274.547	2.39623
-8.7795	1187.42	12.2042	274.349	2.81975
-8.81647	1195.66	10.9005	276.255	2.51852
-8.84844	1200.83	12.0734	277.447	2.78952
-8.87916	1211.19	10.6141	279.841	2.45235
-8.91089	1212.85	11.5438	280.225	2.66717
-8.94162	1220.25	10.6926	281.934	2.47049
-8.97309	1225.08	13.1488	283.052	3.03799
-8.99995	1215.47	12.3961	280.831	2.86407
-8.97481	1210.53	13.9831	279.69	3.23075
-8.94313	1229.71	9.89412	284.12	2.28601
-8.91096	1223.01	10.1128	282.573	2.33652
-8.87654	1222.82	13.2667	282.53	3.06523
-8.84357	1198.06	9.75575	276.809	2.25404
-8.8121	1202.8	14.9301	277.902	3.44957
-8.77592	1188.3	10.7788	274.554	2.4904
-8.74665	1198.16	10.9408	276.832	2.52783
-8.71541	1180.75	13.1235	272.81	3.03215
-8.68396	1182.19	9.47004	273.14	2.18803
-8.6527	1169.93	14.8833	270.308	3.43874
-8.62022	1165.47	13.5829	269.279	3.13828
-8.58674	1160.73	11.1305	268.184	2.57166
-8.55578	1155.22	16.105	266.911	3.72101
-8.52555	1157.86	13.9664	267.519	3.2269
-8.49058	1154.72	9.98396	266.795	2.30676
-8.45556	1153.03	12.0004	266.405	2.77266
-8.42258	1132.41	9.40731	261.639	2.17353
-8.38636	1134.07	8.92925	262.023	2.06308
-8.35464	1127.3	10.8034	260.459	2.4961
-8.31891	1120.85	9.07739	258.97	2.0973
-8.28243	1111.81	10.9979	256.881	2.54102
-8.24546	1117.94	12.0688	258.297	2.78845
-8.21195	1105.37	12.8202	255.392	2.96208
-8.18023	1102.92	12.3698	254.826	2.85801
-8.14128	1085.64	12.8328	250.834	2.96497
-8.11005	1090.52	9.7075	251.961	2.24289
-8.07107	1079.98	8.51715	249.526	1.96786
-8.03909	1076.27	12.4368	248.669	2.87349
-8.0058	1063.22	10.7627	245.655	2.48669
-7.97106	1070.02	10.4769	247.226	2.42066
-7.93455	1066.04	9.08453	246.305	2.09895
-7.90262	1052.62	11.4026	243.205	2.63454
-7.8734	1042.33	13.33	240.826	3.07985
-7.8354	1047.95	9.44624	242.125	2.18253
-7.80142	1043.27	10.3806	241.045	2.3984
-7.76997	1043.52	8.8155	241.103	2.03679
-7.73223	1022.62	10.9155	236.272	2.522
-7.70024	1016.05	9.13941	234.756	2.11163
-7.66976	1005.57	8.75046	232.334	2.02177
-7.63554	1011	9.26327	233.589	2.14025
-7.60603	1010.22	10.6388	233.409	2.45807
-7.57378	1006.05	9.99936	232.446	2.31032
-7.53756	994.345	7.72872	229.741	1.7857
-7.50335	991.961	11.847	229.19	2.73721
-7.47034	986.36	13.6535	227.896	3.1546
-7.43941	985.886	9.82541	227.786	2.27013
-7.40338	977.142	9.26836	225.766	2.14143
-7.36945	959.226	13.1162	221.626	3.03046
-7.33446	964.384	12.5886	222.818	2.90856
-7.30098	959.71	11.3423	221.738	2.62061
-7.26954	960.114	13.9348	221.832	3.21961
-7.23127	945.988	14.7032	218.568	3.39713
-7.19852	941.156	11.1854	217.451	2.58436
-7.16605	937.641	11.9879	216.639	2.76977
-7.13079	939.882	11.023	217.157	2.54683
-7.09482	908.641	9.40559	209.939	2.17313
-7.05934	913.516	9.5696	211.065	2.21103
-7.02289	920.208	8.46291	212.611	1.95533
-6.98739	913.321	10.0172	211.02	2.31445
-6.95345	903.228	8.12842	208.688	1.87805
-6.91847	898.343	10.7163	207.56	2.47597
-6.88221	904.718	10.1018	209.032	2.334
-6.84974	889.485	11.9544	205.513	2.76202
-6.81655	882.323	11.4085	203.858	2.6359
-6.78108	869.973	8.56874	201.005	1.97978
-6.75085	874.409	7.17753	202.03	1.65835
-6.71886	880.848	10.3336	203.517	2.38754
-6.68258	871.189	10.7137	201.286	2.47537
-6.65087	856.692	8.43042	197.936	1.94782
-6.61414	851.513	9.16447	196.74	2.11742
-6.58064	842.197	10.1232	194.587	2.33895
-6.54592	841.863	7.92494	194.51	1.83103
-6.5137	837.602	9.29928	193.525	2.14857
-6.47796	830.38	7.07995	191.857	1.6358
-6.44599	824.084	11.8956	190.402	2.74845
-6.41128	816.528	8.95309	188.656	2.06859
-6.37379	819.885	10.0845	189.432	2.32999
-6.33554	804.437	9.56135	185.863	2.20912
-6.30408	802.008	8.67336	185.302	2.00395
-6.26659	801.848	11.061	185.265	2.55561
-6.23182	786.226	7.99552	181.655	1.84734
-6.20084	786.331	7.22174	181.68	1.66856
-6.16762	781.452	8.22068	180.552	1.89936
-6.13684	776.222	8.51277	179.344	1.96685
-6.10517	768.737	6.68958	177.614	1.54561
-6.07365	772.501	9.23019	178.484	2.13261
-6.04116	760.721	6.98372	175.762	1.61357
-6.00724	752.118	8.82113	173.775	2.0381
-5.976	754.802	7.84712	174.395	1.81305
-5.9415	745.46	9.7848	172.236	2.26075
-5.91101	744.883	9.30616	172.103	2.15016
-5.87805	727.85	5.88967	168.167	1.36079
-5.84308	712.889	8.99354	164.711	2.07793
-5.81183	725.971	6.98196	167.733	1.61316
-5.77758	722.083	7.66743	166.835	1.77154
-5.74785	717.403	8.98731	165.754	2.07649
-5.71411	701.403	6.89931	162.057	1.59407
-5.68212	708.301	9.45825	163.651	2.1853
-5.64791	696.891	8.6092	161.015	1.98913
-5.61571	691.963	7.63917	159.876	1.76501
-5.58267	687.561	8.91809	158.859	2.0605
-5.5477	681.732	10.3398	157.512	2.38899
-5.517	682.943	10.5986	157.792	2.44877
-5.48101	678.382	6.37603	156.738	1.47316
-5.44654	660.624	8.20708	152.635	1.89622
-5.41358	667.07	6.30594	154.125	1.45697
-5.38456	662.94	7.64921	153.17	1.76733
-5.35133	655.438	8.45108	151.437	1.9526
-5.31736	639.428	8.97541	147.738	2.07374
-5.28261	637.996	8.36524	147.407	1.93276
-5.25114	633.544	6.91917	146.378	1.59865
-5.21868	638.28	7.71822	147.473	1.78327
-5.18618	621.616	7.58564	143.622	1.75264
-5.15697	625.676	11.9094	144.56	2.75164
-5.12376	616.599	6.11066	142.463	1.41185
-5.08777	610.959	7.21956	141.16	1.66806
-5.05677	602.311	8.87851	139.162	2.05135
-5.02182	603.089	8.36764	139.342	1.93332
-4.98435	588.456	7.67941	135.961	1.7743
-4.95032	582.368	7.0016	134.554	1.6177
-4.91561	587.538	7.79759	135.749	1.80161
-4.88386	579.507	8.52404	133.893	1.96945
-4.85111	572.781	8.44442	132.339	1.95106
-4.81286	567.538	8.09635	131.128	1.87064
-4.77867	564.854	7.34818	130.508	1.69778
-4.74244	552.804	9.85946	127.724	2.278
-4.70848	544.61	10.996	125.831	2.54058
-4.67751	544.71	6.59754	125.854	1.52434
-4.64505	539.494	8.34614	124.648	1.92835
-4.61103	536.062	7.06871	123.856	1.63321
-4.57929	535.265	6.10287	123.671	1.41005
-4.54635	523.695	7.41774	120.998	1.71385
-4.51059	512.63	8.03661	118.442	1.85683
-4.47615	513.693	7.23349	118.687	1.67128
-4.44011	515.826	6.26518	119.18	1.44755
-4.40434	502.31	5.19254	116.057	1.19972
-4.36916	489.476	6.93845	113.092	1.60311
-4.33366	496.712	5.86816	114.764	1.35582
-4.30217	490.002	7.4344	113.213	1.7177
-4.26497	482.026	6.43345	111.371	1.48643
-4.23124	471.497	7.09377	108.938	1.63899
-4.19823	467.002	7.95139	107.899	1.83715
-4.16327	469.396	8.10105	108.453	1.87172
-4.13301	465.318	7.95365	107.51	1.83767
-4.09813	450.32	6.09427	104.045	1.40806
-4.06435	443.019	6.23618	102.358	1.44085
-4.03184	440.381	4.8353	101.749	1.11718
-4.00237	437.001	5.33846	100.968	1.23344
-3.96882	437.194	4.90559	101.012	1.13342
-3.93636	423.924	7.36118	97.9465	1.70078
-3.90466	427.187	4.59644	98.7004	1.06199
-3.87341	419.177	6.61783	96.8496	1.52903
-3.84242	412.965	5.59564	95.4144	1.29286
-3.80994	411.324	6.03658	95.0352	1.39473
-3.77298	404.704	5.02851	93.5056	1.16182
-3.73599	393.536	6.13149	90.9253	1.41666
-3.70175	388.68	7.80219	89.8033	1.80267
-3.67181	388.97	5.50986	89.8702	1.27304
-3.63283	380.484	6.05142	87.9098	1.39816
-3.6008	375.326	6.21748	86.7179	1.43653
-3.56783	368.774	6.25064	85.2041	1.44419
-3.53737	364.436	5.98181	84.202	1.38208
-3.50631	360.908	5.05757	83.3867	1.16854
-3.47311	357.332	3.58879	82.5605	0.829179
-3.44191	357.24	5.87606	82.5393	1.35765
-3.40796	346.286	6.23207	80.0082	1.4399
-3.37697	343.631	5.90051	79.3948	1.3633
-3.34424	338.929	4.63616	78.3084	1.07117
-3.3128	330.805	6.33307	76.4314	1.46324
-3.27931	333.239	5.84114	76.9938	1.34958
-3.24385	320.776	4.19518	74.1144	0.969283
-3.21263	311.163	5.57612	71.8932	1.28835
-3.17863	306.417	6.31572	70.7968	1.45923
-3.14836	305.494	4.80096	70.5835	1.10925
-3.11062	304.107	5.10099	70.263	1.17857
-3.07966	293.589	4.73031	67.8329	1.09293
-3.04636	292.14	5.17214	67.4981	1.19501
-3.01268	281.143	5.39889	64.9572	1.2474
-2.98192	282.209	3.74886	65.2035	0.866164
-2.94894	280.204	4.46124	64.7404	1.03076
-2.9165	269.739	5.4907	62.3224	1.26861
-2.88254	269.557	5.15309	62.2803	1.19061
-2.85053	264.353	5.30834	61.078	1.22648
-2.81857	255.078	5.93552	58.9349	1.37138
-2.78584	250.537	5.66999	57.8859	1.31003
-2.75635	250.895	4.25417	57.9684	0.982913
-2.7209	241.635	3.79077	55.8291	0.875846
-2.6879	235.74	4.4085	54.467	1.01857
-2.65587	229.187	4.54091	52.9529	1.04916
-2.62007	228.375	4.81418	52.7655	1.1123
-2.5874	219.644	5.28405	50.748	1.22086
-2.55565	217.569	4.36058	50.2688	1.0075
-2.52444	211.048	4.69954	48.7619	1.08581
-2.48898	203.533	4.44413	47.0256	1.0268
-2.45874	202.757	3.76082	46.8464	0.868927
-2.42275	201.197	3.65505	46.4859	0.844489
-2.38855	194.899	4.45503	45.0309	1.02932
-2.35708	184.938	4.0364	42.7293	0.932597
-2.32407	179.492	3.7875	41.471	0.875092
-2.28909	175.3	4.20967	40.5025	0.972631
-2.25886	172.49	4.75386	39.8533	1.09837
-2.22335	167.367	3.03006	38.6696	0.700087
-2.18864	163.818	4.4608	37.8496	1.03066
-2.15889	153.865	4.33697	35.5501	1.00204
-2.12464	151.989	4.71305	35.1167	1.08894
-2.08945	148.27	4.05342	34.2572	0.93653
-2.05747	138.487	3.24083	31.997	0.748785
-2.02373	134.755	3.23691	31.1346	0.747878
-1.99177	126.559	5.22837	29.2411	1.208
-1.96003	126.899	3.36136	29.3197	0.776633
-1.9248	119.966	3.73433	27.7178	0.862805
-1.89307	114.042	3.0683	26.3491	0.708921
-1.86158	113.061	4.26031	26.1224	0.984332
-1.83109	108.298	3.71069	25.022	0.857345
-1.79261	102.117	3.81034	23.5938	0.880367
-1.75989	99.0759	3.51195	22.8912	0.811427
-1.72513	90.8556	2.91965	20.9919	0.674576
-1.69266	87.4975	3.7615	20.216	0.869083
-1.6607	81.023	3.81691	18.7201	0.881886
-1.62722	77.0844	3.39454	17.8101	0.784297
-1.59222	71.861	3.63953	16.6033	0.840903
-1.55925	66.9528	2.3798	15.4693	0.549846
-1.52803	61.5796	3.22832	14.2278	0.745893
-1.49605	55.8736	3.58339	12.9094	0.827933
-1.46431	47.5851	3.59348	10.9944	0.830263
-1.42558	46.7967	3.40669	10.8122	0.787106
-1.3901	45.5542	3.2375	10.5252	0.748014
-1.35563	36.9924	3.57269	8.54699	0.825459
-1.32409	32.3531	2.9765	7.47509	0.687711
-1.29312	26.0275	3.11146	6.01357	0.718893
-1.25786	27.5673	2.65598	6.36933	0.613657
-1.22815	18.2601	2.79792	4.21894	0.646451
-1.19468	14.0683	2.38643	3.25044	0.551377
-1.16244	7.47521	2.67572	1.72713	0.618218
-1.12447	3.59298	2.44106	0.830147	0.564
-1.08875	-0.311047	2.28293	-0.0718666	0.527464
-1.05502	-7.21872	2.526	-1.66786	0.583626
-1.02452	-10.2485	2.10898	-2.36788	0.487273
-0.990058	-17.6802	2.73577	-4.08496	0.632091
-0.954814	-20.9897	2.63719	-4.8496	0.609315
-0.924583	-23.8193	2.24951	-5.50338	0.519742
-0.886532	-29.6216	2.634	-6.84398	0.608577
-0.854036	-31.7052	3.28748	-7.32539	0.759562
-0.823817	-37.835	2.23143	-8.74166	0.515566
-0.788814	-42.1643	2.87117	-9.74193	0.663375
-0.755114	-41.1298	2.61266	-9.50293	0.603648
-0.724368	-49.754	2.1984	-11.4955	0.507934
-0.693866	-53.3005	2.34485	-12.3149	0.541771
-0.659394	-55.6377	2.54428	-12.8549	0.587848
-0.624397	-62.5382	2.08864	-14.4493	0.482573
-0.593926	-66.6214	2.4313	-15.3927	0.561745
-0.563688	-67.8984	2.36948	-15.6877	0.547461
-0.533209	-70.2792	2.46369	-16.2378	0.569229
-0.500478	-73.6776	2.05619	-17.023	0.475076
-0.467729	-78.3219	2.56627	-18.096	0.592928
-0.433954	-77.1735	2.2319	-17.8307	0.515673
-0.403471	-80.6135	2.05845	-18.6255	0.475599
-0.367475	-83.4755	1.8633	-19.2868	0.430509
-0.33151	-82.0269	2.21951	-18.9521	0.512811
-0.300499	-81.5404	2.21785	-18.8397	0.512427
-0.266258	-86.3484	1.78468	-19.9505	0.412345
-0.235029	-87.7933	1.99615	-20.2844	0.461204
-0.204024	-87.1223	1.85102	-20.1294	0.427674
-0.17204	-84.0563	2.30333	-19.421	0.532178
-0.143766	-84.5413	2.03672	-19.533	0.470579
-0.112017	-79.0555	2.12953	-18.2655	0.492021
-0.0830221	-75.9886	1.87332	-17.5569	0.432825
-0.0505378	-69.5321	2.30626	-16.0652	0.532854
-0.0170341	-38.3307	1.88091	-8.85619	0.43458
0.01667	32.1639	2.03951	7.43136	0.471222
0.0461225	65.0703	2.16579	15.0343	0.5004
0.074842	74.7099	1.98938	17.2615	0.459641
0.110209	83.7962	2.37936	19.3609	0.549744
0.140101	85.4837	1.8188	19.7508	0.420228
0.170536	85.9118	2.18275	19.8497	0.504317
0.202949	88.1084	1.98448	20.3572	0.458507