File: data/colloidalCrystals/nanoparticles/vsm/postOxidationStep/rawdata/dd147_stabledry_2_BGLinSub.xy
#Extracted data using VSM extraction tool v1.1
#Loaded parameter file: extractVSM.dat
#Desired unit of B: T
#Desired unit of M: memu
#Reading column for B: Applied Field
#Reading column for M: Raw Signal Mx
#Estimate noise level: 5e-3 memu
#Loading data from file: dd147_stabledry_2-Hys-00.VHD
#Save data to file: dd147_stabledry_2.xye
#Extraction performed at: Fri Oct 14 13:35:57 2016
#Unit of B in data: Oe
#Changing unit by multiplying with factor: 0.0001
#Unit of M in data: memu
#Applied image correction factors to M by linear interpolation of following values
#14997.0	1.0
#15246.0	1.000145
#15496.0	1.000446
#15746.0	1.000592
#15995.0	1.000892
#16246.0	1.001261
#16495.0	1.001631
#16745.0	1.002
#16995.0	1.002448
#17245.0	1.002965
#17495.0	1.003491
#17745.0	1.004009
#17994.0	1.004605
#18244.0	1.005202
#18494.0	1.006025
#18744.0	1.006702
#18994.0	1.007597

#Substracted file: dd147_stabledry_2.xye
#Using Slope: -1.301
#BG Scalefactor: 1
#BG Sigma Slope: 0.0
#B / T	M_sub / memu	sM_sub / memu	M_extracted / memu	sM_extracted / memu	M_raw / memu	sM_raw / memu
-0.0009	-0.3385975	0.005	-0.3374266	0.005	-0.3374266	0.005
0.0	0.02297575	0.005	0.02297575	0.005	0.02297575	0.005
0.0009	0.4700289	0.005	0.468858	0.005	0.468858	0.005
0.0019	0.8575306	0.005	0.8550587	0.005	0.8550587	0.005
0.0029	1.21939	0.005	1.215615	0.005	1.215615	0.005
0.0039	1.54349	0.005	1.538419	0.005	1.538419	0.005
0.0049	1.84062	0.005	1.834247	0.005	1.834247	0.005
0.0074	2.47923	0.005	2.469601	0.005	2.469601	0.005
0.0099	3.0084	0.005	2.995517	0.005	2.995517	0.005
0.0124	3.43759	0.005	3.421459	0.005	3.421459	0.005
0.0149	3.81353	0.005	3.794141	0.005	3.794141	0.005
0.0174	4.13439	0.005	4.111753	0.005	4.111753	0.005
0.0199	4.41621	0.005	4.390319	0.005	4.390319	0.005
0.0224	4.66788	0.005	4.638737	0.005	4.638737	0.005
0.0249	4.89289	0.005	4.8605	0.005	4.8605	0.005
0.0274	5.0971	0.005	5.061451	0.005	5.061451	0.005
0.0299	5.28271	0.005	5.243815	0.005	5.243815	0.005
0.0324	5.45193	0.005	5.409777	0.005	5.409777	0.005
0.0349	5.60792	0.005	5.562517	0.005	5.562517	0.005
0.0374	5.75236	0.005	5.703699	0.005	5.703699	0.005
0.0399	5.88257	0.005	5.830658	0.005	5.830658	0.005
0.0424	6.0031	0.005	5.947933	0.005	5.947933	0.005
0.0449	6.12092	0.005	6.062505	0.005	6.062505	0.005
0.0474	6.22767	0.005	6.165998	0.005	6.165998	0.005
0.0499	6.33196	0.005	6.267044	0.005	6.267044	0.005
0.0524	6.42891	0.005	6.360734	0.005	6.360734	0.005
0.0549	6.51794	0.005	6.44652	0.005	6.44652	0.005
0.0574	6.6012	0.005	6.52652	0.005	6.52652	0.005
0.0599	6.68378	0.005	6.605852	0.005	6.605852	0.005
0.0624	6.75945	0.005	6.678263	0.005	6.678263	0.005
0.0649	6.82945	0.005	6.745018	0.005	6.745018	0.005
0.0673	6.90028	0.005	6.812721	0.005	6.812721	0.005
0.0698	6.96314	0.005	6.872331	0.005	6.872331	0.005
0.0724	7.02341	0.005	6.929213	0.005	6.929213	0.005
0.0749	7.08427	0.005	6.986821	0.005	6.986821	0.005
0.0774	7.13845	0.005	7.037754	0.005	7.037754	0.005
0.0799	7.19067	0.005	7.086719	0.005	7.086719	0.005
0.0824	7.24225	0.005	7.135051	0.005	7.135051	0.005
0.0849	7.29195	0.005	7.181499	0.005	7.181499	0.005
0.0874	7.33788	0.005	7.224175	0.005	7.224175	0.005
0.0899	7.38755	0.005	7.270587	0.005	7.270587	0.005
0.0924	7.4312	0.005	7.310991	0.005	7.310991	0.005
0.0949	7.46657	0.005	7.343103	0.005	7.343103	0.005
0.0974	7.50821	0.005	7.381493	0.005	7.381493	0.005
0.0999	7.54758	0.005	7.41761	0.005	7.41761	0.005
0.1499	8.08519	0.005	7.890174	0.005	7.890174	0.005
0.1999	8.38123	0.005	8.121156	0.005	8.121156	0.005
0.2499	8.56695	0.005	8.24183	0.005	8.24183	0.005
0.2999	8.6998	0.005	8.309627	0.005	8.309627	0.005
0.3499	8.79976	0.005	8.344538	0.005	8.344538	0.005
0.3999	8.88548	0.005	8.365208	0.005	8.365208	0.005
0.4499	8.95315	0.005	8.367832	0.005	8.367832	0.005
0.4999	9.0162	0.005	8.365829	0.005	8.365829	0.005
0.5499	9.06764	0.005	8.352221	0.005	8.352221	0.005
0.5999	9.11898	0.005	8.338507	0.005	8.338507	0.005
0.6499	9.16833	0.005	8.322814	0.005	8.322814	0.005
0.6999	9.2071	0.005	8.296533	0.005	8.296533	0.005
0.75	9.242279	0.005	8.266529	0.005	8.266529	0.005
0.8	9.281142	0.005	8.240342	0.005	8.240342	0.005
0.8499	9.31798	0.005	8.212259	0.005	8.212259	0.005
0.9	9.350941	0.005	8.180041	0.005	8.180041	0.005
0.95	9.379885	0.005	8.143935	0.005	8.143935	0.005
1.0	9.406182	0.005	8.105182	0.005	8.105182	0.005
1.0999	9.46155	0.005	8.030581	0.005	8.030581	0.005
1.2	9.514217	0.005	7.953017	0.005	7.953017	0.005
1.2999	9.56583	0.005	7.874656	0.005	7.874656	0.005
1.4	9.611594	0.005	7.790194	0.005	7.790194	0.005
1.4999	9.64524	0.005	7.69387	0.005	7.693857	0.005
1.6	9.69382	0.005	7.61222	0.005	7.605378	0.005
1.6999	9.73154	0.005	7.51997	0.005	7.501545	0.005
1.8	9.77178	0.005	7.42998	0.005	7.395816	0.005
1.8999	9.80726	0.005	7.33549	0.005	7.280178	0.005
1.8004	9.76113	0.005	7.41881	0.005	7.384631	0.005
1.7003	9.72085	0.005	7.50876	0.005	7.490303	0.005
1.6003	9.68237	0.005	7.60038	0.005	7.593514	0.005
1.5002	9.63221	0.005	7.68045	0.005	7.680424	0.005
1.4003	9.59106	0.005	7.769266	0.005	7.769266	0.005
1.3002	9.54833	0.005	7.856773	0.005	7.856773	0.005
1.2002	9.4931	0.005	7.931644	0.005	7.931644	0.005
1.1001	9.43774	0.005	8.006514	0.005	8.006514	0.005
1.0002	9.38185	0.005	8.080588	0.005	8.080588	0.005
0.9501	9.35042	0.005	8.11434	0.005	8.11434	0.005
0.9001	9.31898	0.005	8.147952	0.005	8.147952	0.005
0.8501	9.2808	0.005	8.174818	0.005	8.174818	0.005
0.8002	9.24293	0.005	8.201871	0.005	8.201871	0.005
0.7501	9.20402	0.005	8.228139	0.005	8.228139	0.005
0.7	9.169722	0.005	8.259022	0.005	8.259022	0.005
0.6501	9.13047	0.005	8.284693	0.005	8.284693	0.005
0.6001	9.07396	0.005	8.293231	0.005	8.293231	0.005
0.5501	9.02696	0.005	8.311278	0.005	8.311278	0.005
0.5	8.969472	0.005	8.318972	0.005	8.318972	0.005
0.4501	8.90995	0.005	8.324371	0.005	8.324371	0.005
0.4001	8.83627	0.005	8.31574	0.005	8.31574	0.005
0.3501	8.75185	0.005	8.296369	0.005	8.296369	0.005
0.3001	8.64806	0.005	8.257628	0.005	8.257628	0.005
0.25	8.516733	0.005	8.191483	0.005	8.191483	0.005
0.2001	8.32705	0.005	8.066722	0.005	8.066722	0.005
0.15	8.035504	0.005	7.840354	0.005	7.840354	0.005
0.1	7.497094	0.005	7.366994	0.005	7.366994	0.005
0.0974	7.4534	0.005	7.326684	0.005	7.326684	0.005
0.0949	7.41403	0.005	7.290566	0.005	7.290566	0.005
0.0924	7.37064	0.005	7.250431	0.005	7.250431	0.005
0.0899	7.32926	0.005	7.212299	0.005	7.212299	0.005
0.0874	7.28115	0.005	7.167445	0.005	7.167445	0.005
0.0849	7.23408	0.005	7.123621	0.005	7.123621	0.005
0.0824	7.18474	0.005	7.077537	0.005	7.077537	0.005
0.0799	7.13141	0.005	7.02746	0.005	7.02746	0.005
0.0774	7.07553	0.005	6.974829	0.005	6.974829	0.005
0.0749	7.02343	0.005	6.925981	0.005	6.925981	0.005
0.0724	6.96459	0.005	6.870399	0.005	6.870399	0.005
0.0699	6.90018	0.005	6.809243	0.005	6.809243	0.005
0.0674	6.83463	0.005	6.746938	0.005	6.746938	0.005
0.0649	6.76409	0.005	6.679657	0.005	6.679657	0.005
0.0624	6.69277	0.005	6.611591	0.005	6.611591	0.005
0.0599	6.61676	0.005	6.538828	0.005	6.538828	0.005
0.0574	6.53758	0.005	6.462904	0.005	6.462904	0.005
0.0549	6.45137	0.005	6.379941	0.005	6.379941	0.005
0.0524	6.3639	0.005	6.295725	0.005	6.295725	0.005
0.0499	6.26555	0.005	6.200629	0.005	6.200629	0.005
0.0474	6.16474	0.005	6.103073	0.005	6.103073	0.005
0.0449	6.05791	0.005	5.999498	0.005	5.999498	0.005
0.0424	5.94322	0.005	5.888054	0.005	5.888054	0.005
0.0399	5.81791	0.005	5.765999	0.005	5.765999	0.005
0.0374	5.68569	0.005	5.637037	0.005	5.637037	0.005
0.0349	5.54466	0.005	5.499258	0.005	5.499258	0.005
0.0324	5.3895	0.005	5.347345	0.005	5.347345	0.005
0.0299	5.21994	0.005	5.181036	0.005	5.181036	0.005
0.0274	5.03746	0.005	5.001811	0.005	5.001811	0.005
0.0249	4.83552	0.005	4.803129	0.005	4.803129	0.005
0.0224	4.6123	0.005	4.583157	0.005	4.583157	0.005
0.0199	4.3663	0.005	4.340408	0.005	4.340408	0.005
0.0174	4.08391	0.005	4.061277	0.005	4.061277	0.005
0.0149	3.76645	0.005	3.747068	0.005	3.747068	0.005
0.0124	3.39819	0.005	3.382061	0.005	3.382061	0.005
0.0099	2.96398	0.005	2.951105	0.005	2.951105	0.005
0.0074	2.45368	0.005	2.444056	0.005	2.444056	0.005
0.0049	1.81722	0.005	1.810841	0.005	1.810841	0.005
0.004	1.55357	0.005	1.548366	0.005	1.548366	0.005
0.003	1.232826	0.005	1.228923	0.005	1.228923	0.005
0.0019	0.8524373	0.005	0.8499654	0.005	0.8499654	0.005
0.001	0.5059939	0.005	0.5046929	0.005	0.5046929	0.005
0.0	0.1009557	0.005	0.1009557	0.005	0.1009557	0.005
-0.0009	-0.3404244	0.005	-0.3392535	0.005	-0.3392535	0.005
-0.0019	-0.7309769	0.005	-0.728505	0.005	-0.728505	0.005
-0.0028	-1.09461	0.005	-1.090972	0.005	-1.090972	0.005
-0.0039	-1.42334	0.005	-1.41827	0.005	-1.41827	0.005
-0.0049	-1.72559	0.005	-1.719216	0.005	-1.719216	0.005
-0.0073	-2.37075	0.005	-2.361253	0.005	-2.361253	0.005
-0.0099	-2.89505	0.005	-2.882171	0.005	-2.882171	0.005
-0.0124	-3.33441	0.005	-3.318277	0.005	-3.318277	0.005
-0.0149	-3.70642	0.005	-3.687035	0.005	-3.687035	0.005
-0.0174	-4.02912	0.005	-4.006479	0.005	-4.006479	0.005
-0.0199	-4.31534	0.005	-4.289452	0.005	-4.289452	0.005
-0.0224	-4.56562	0.005	-4.536475	0.005	-4.536475	0.005
-0.0249	-4.78596	0.005	-4.753566	0.005	-4.753566	0.005
-0.0273	-4.99248	0.005	-4.956963	0.005	-4.956963	0.005
-0.0298	-5.17513	0.005	-5.13636	0.005	-5.13636	0.005
-0.0324	-5.34491	0.005	-5.302757	0.005	-5.302757	0.005
-0.0349	-5.50007	0.005	-5.45467	0.005	-5.45467	0.005
-0.0374	-5.64294	0.005	-5.594281	0.005	-5.594281	0.005
-0.0399	-5.77594	0.005	-5.724029	0.005	-5.724029	0.005
-0.0424	-5.90091	0.005	-5.84575	0.005	-5.84575	0.005
-0.0449	-6.01551	0.005	-5.957092	0.005	-5.957092	0.005
-0.0474	-6.12486	0.005	-6.063196	0.005	-6.063196	0.005
-0.0499	-6.22444	0.005	-6.159522	0.005	-6.159522	0.005
-0.0523	-6.31867	0.005	-6.250624	0.005	-6.250624	0.005
-0.0549	-6.41061	0.005	-6.339185	0.005	-6.339185	0.005
-0.0574	-6.49344	0.005	-6.418764	0.005	-6.418764	0.005
-0.0599	-6.57549	0.005	-6.497557	0.005	-6.497557	0.005
-0.0624	-6.65116	0.005	-6.56998	0.005	-6.56998	0.005
-0.0649	-6.72343	0.005	-6.638995	0.005	-6.638995	0.005
-0.0674	-6.78916	0.005	-6.701475	0.005	-6.701475	0.005
-0.0699	-6.85489	0.005	-6.763955	0.005	-6.763955	0.005
-0.0724	-6.91449	0.005	-6.820298	0.005	-6.820298	0.005
-0.0749	-6.97596	0.005	-6.878515	0.005	-6.878515	0.005
-0.0774	-7.03102	0.005	-6.930326	0.005	-6.930326	0.005
-0.0799	-7.08489	0.005	-6.980942	0.005	-6.980942	0.005
-0.0824	-7.13572	0.005	-7.028514	0.005	-7.028514	0.005
-0.0849	-7.18515	0.005	-7.074691	0.005	-7.074691	0.005
-0.0874	-7.23017	0.005	-7.116466	0.005	-7.116466	0.005
-0.0899	-7.27725	0.005	-7.160289	0.005	-7.160289	0.005
-0.0924	-7.3189	0.005	-7.198691	0.005	-7.198691	0.005
-0.0949	-7.36263	0.005	-7.239165	0.005	-7.239165	0.005
-0.0974	-7.40027	0.005	-7.27355	0.005	-7.27355	0.005
-0.0999	-7.4385	0.005	-7.308531	0.005	-7.308531	0.005
-0.1498	-7.97775	0.005	-7.782863	0.005	-7.782863	0.005
-0.1998	-8.26844	0.005	-8.008505	0.005	-8.008505	0.005
-0.2498	-8.4534	0.005	-8.128406	0.005	-8.128406	0.005
-0.2998	-8.58563	0.005	-8.195593	0.005	-8.195593	0.005
-0.3498	-8.68549	0.005	-8.230399	0.005	-8.230399	0.005
-0.3998	-8.77045	0.005	-8.250309	0.005	-8.250309	0.005
-0.4499	-8.83562	0.005	-8.250297	0.005	-8.250297	0.005
-0.4999	-8.89788	0.005	-8.24751	0.005	-8.24751	0.005
-0.5498	-8.95371	0.005	-8.238422	0.005	-8.238422	0.005
-0.5999	-8.99979	0.005	-8.219321	0.005	-8.219321	0.005
-0.6499	-9.04993	0.005	-8.204412	0.005	-8.204412	0.005
-0.6999	-9.09334	0.005	-8.18277	0.005	-8.18277	0.005
-0.7499	-9.13038	0.005	-8.154756	0.005	-8.154756	0.005
-0.7998	-9.16554	0.005	-8.124998	0.005	-8.124998	0.005
-0.8499	-9.1993	0.005	-8.093576	0.005	-8.093576	0.005
-0.8999	-9.22901	0.005	-8.058243	0.005	-8.058243	0.005
-0.9499	-9.26065	0.005	-8.024831	0.005	-8.024831	0.005
-0.9999	-9.29079	0.005	-7.989919	0.005	-7.989919	0.005
-1.0999	-9.3504	0.005	-7.919429	0.005	-7.919429	0.005
-1.1999	-9.40274	0.005	-7.841666	0.005	-7.841666	0.005
-1.2999	-9.44933	0.005	-7.758164	0.005	-7.758164	0.005
-1.3998	-9.49215	0.005	-7.671008	0.005	-7.671008	0.005
-1.4999	-9.53251	0.005	-7.58114	0.005	-7.581136	0.005
-1.5999	-9.56906	0.005	-7.48759	0.005	-7.480875	0.005
-1.7	-9.61684	0.005	-7.40514	0.005	-7.386985	0.005
-1.7999	-9.65784	0.005	-7.31617	0.005	-7.282544	0.005
-1.8999	-9.69533	0.005	-7.22356	0.005	-7.169096	0.005
-1.8003	-9.64896	0.005	-7.30677	0.005	-7.273116	0.005
-1.7003	-9.60828	0.005	-7.39619	0.005	-7.378003	0.005
-1.6001	-9.5621	0.005	-7.48037	0.005	-7.473637	0.005
-1.5003	-9.52058	0.005	-7.56869	0.005	-7.568663	0.005
-1.4001	-9.48363	0.005	-7.662096	0.005	-7.662096	0.005
-1.3002	-9.42912	0.005	-7.737564	0.005	-7.737564	0.005
-1.2001	-9.38529	0.005	-7.823958	0.005	-7.823958	0.005
-1.1002	-9.33184	0.005	-7.90048	0.005	-7.90048	0.005
-1.0001	-9.27176	0.005	-7.970631	0.005	-7.970631	0.005
-0.9501	-9.24346	0.005	-8.007381	0.005	-8.007381	0.005
-0.9001	-9.20572	0.005	-8.034692	0.005	-8.034692	0.005
-0.8501	-9.17828	0.005	-8.072297	0.005	-8.072297	0.005
-0.8	-9.139189	0.005	-8.098389	0.005	-8.098389	0.005
-0.75	-9.101345	0.005	-8.125595	0.005	-8.125595	0.005
-0.7001	-9.06549	0.005	-8.154662	0.005	-8.154662	0.005
-0.65	-9.020456	0.005	-8.174806	0.005	-8.174806	0.005
-0.6	-8.976439	0.005	-8.195839	0.005	-8.195839	0.005
-0.55	-8.925185	0.005	-8.209635	0.005	-8.209635	0.005
-0.5	-8.873322	0.005	-8.222822	0.005	-8.222822	0.005
-0.45	-8.806176	0.005	-8.220726	0.005	-8.220726	0.005
-0.4	-8.741196	0.005	-8.220796	0.005	-8.220796	0.005
-0.35	-8.655042	0.005	-8.199692	0.005	-8.199692	0.005
-0.3	-8.551755	0.005	-8.161455	0.005	-8.161455	0.005
-0.25	-8.42022	0.005	-8.09497	0.005	-8.09497	0.005
-0.2	-8.231533	0.005	-7.971333	0.005	-7.971333	0.005
-0.15	-7.939178	0.005	-7.744028	0.005	-7.744028	0.005
-0.1	-7.408194	0.005	-7.278094	0.005	-7.278094	0.005
-0.0975	-7.36768	0.005	-7.240828	0.005	-7.240828	0.005
-0.0949	-7.32686	0.005	-7.203399	0.005	-7.203399	0.005
-0.0925	-7.28396	0.005	-7.163615	0.005	-7.163615	0.005
-0.09	-7.241754	0.005	-7.124664	0.005	-7.124664	0.005
-0.0875	-7.1968	0.005	-7.082959	0.005	-7.082959	0.005
-0.0849	-7.14963	0.005	-7.039171	0.005	-7.039171	0.005
-0.0824	-7.09914	0.005	-6.991939	0.005	-6.991939	0.005
-0.0799	-7.04688	0.005	-6.942927	0.005	-6.942927	0.005
-0.0774	-6.99177	0.005	-6.89107	0.005	-6.89107	0.005
-0.0749	-6.93792	0.005	-6.840477	0.005	-6.840477	0.005
-0.0724	-6.87786	0.005	-6.783665	0.005	-6.783665	0.005
-0.07	-6.817408	0.005	-6.726338	0.005	-6.726338	0.005
-0.0675	-6.75151	0.005	-6.663694	0.005	-6.663694	0.005
-0.0649	-6.6832	0.005	-6.598767	0.005	-6.598767	0.005
-0.0624	-6.61233	0.005	-6.531146	0.005	-6.531146	0.005
-0.0599	-6.53526	0.005	-6.457329	0.005	-6.457329	0.005
-0.0574	-6.45418	0.005	-6.379507	0.005	-6.379507	0.005
-0.0549	-6.36935	0.005	-6.297926	0.005	-6.297926	0.005
-0.0524	-6.28031	0.005	-6.212141	0.005	-6.212141	0.005
-0.0499	-6.18581	0.005	-6.120886	0.005	-6.120886	0.005
-0.0474	-6.08725	0.005	-6.02558	0.005	-6.02558	0.005
-0.0449	-5.97808	0.005	-5.919662	0.005	-5.919662	0.005
-0.0424	-5.86584	0.005	-5.810673	0.005	-5.810673	0.005
-0.0399	-5.73964	0.005	-5.68773	0.005	-5.68773	0.005
-0.0374	-5.60882	0.005	-5.560162	0.005	-5.560162	0.005
-0.0349	-5.4657	0.005	-5.420291	0.005	-5.420291	0.005
-0.0324	-5.31184	0.005	-5.269686	0.005	-5.269686	0.005
-0.0299	-5.14594	0.005	-5.107043	0.005	-5.107043	0.005
-0.0274	-4.95945	0.005	-4.923804	0.005	-4.923804	0.005
-0.0249	-4.76005	0.005	-4.727653	0.005	-4.727653	0.005
-0.0224	-4.53682	0.005	-4.50768	0.005	-4.50768	0.005
-0.0199	-4.28899	0.005	-4.2631	0.005	-4.2631	0.005
-0.0174	-4.00678	0.005	-3.984142	0.005	-3.984142	0.005
-0.0149	-3.68845	0.005	-3.669061	0.005	-3.669061	0.005
-0.0124	-3.31687	0.005	-3.300738	0.005	-3.300738	0.005
-0.0099	-2.88371	0.005	-2.87083	0.005	-2.87083	0.005
-0.0074	-2.36224	0.005	-2.352614	0.005	-2.352614	0.005
-0.0049	-1.71939	0.005	-1.713017	0.005	-1.713017	0.005
-0.004	-1.455057	0.005	-1.449853	0.005	-1.449853	0.005
-0.003	-1.125762	0.005	-1.121859	0.005	-1.121859	0.005
-0.002	-0.7725534	0.005	-0.7699514	0.005	-0.7699514	0.005
-0.001	-0.3888071	0.005	-0.3875061	0.005	-0.3875061	0.005
0.0	0.01483365	0.005	0.01483365	0.005	0.01483365	0.005
0.0009	0.446441	0.005	0.4452701	0.005	0.4452701	0.005
0.0019	0.8280942	0.005	0.8256223	0.005	0.8256223	0.005
0.0029	1.17764	0.005	1.173863	0.005	1.173863	0.005
0.0039	1.4955	0.005	1.490431	0.005	1.490431	0.005
0.0049	1.78693	0.005	1.780555	0.005	1.780555	0.005
0.0074	2.41285	0.005	2.403221	0.005	2.403221	0.005
0.0099	2.92184	0.005	2.90896	0.005	2.90896	0.005
0.0124	3.34619	0.005	3.330058	0.005	3.330058	0.005
0.0149	3.71157	0.005	3.692182	0.005	3.692182	0.005
0.0174	4.02388	0.005	4.001245	0.005	4.001245	0.005
0.0199	4.30339	0.005	4.277499	0.005	4.277499	0.005
0.0224	4.54686	0.005	4.517713	0.005	4.517713	0.005
0.0249	4.76554	0.005	4.733149	0.005	4.733149	0.005
0.0274	4.96443	0.005	4.928778	0.005	4.928778	0.005
0.0299	5.14455	0.005	5.105646	0.005	5.105646	0.005
0.0324	5.3121	0.005	5.269948	0.005	5.269948	0.005
0.0349	5.46299	0.005	5.417588	0.005	5.417588	0.005
0.0374	5.60498	0.005	5.556325	0.005	5.556325	0.005
0.0399	5.73632	0.005	5.684415	0.005	5.684415	0.005
0.0424	5.85607	0.005	5.800903	0.005	5.800903	0.005
0.0449	5.96927	0.005	5.910855	0.005	5.910855	0.005
0.0474	6.07749	0.005	6.015824	0.005	6.015824	0.005
0.0499	6.17453	0.005	6.109608	0.005	6.109608	0.005
0.0524	6.26864	0.005	6.200465	0.005	6.200465	0.005
0.0549	6.35626	0.005	6.284833	0.005	6.284833	0.005
0.0574	6.441	0.005	6.36632	0.005	6.36632	0.005
0.0599	6.51694	0.005	6.439013	0.005	6.439013	0.005
0.0624	6.59514	0.005	6.513953	0.005	6.513953	0.005
0.0648	6.66467	0.005	6.580368	0.005	6.580368	0.005
0.0673	6.73048	0.005	6.642918	0.005	6.642918	0.005
0.0698	6.79892	0.005	6.708115	0.005	6.708115	0.005
0.0724	6.85562	0.005	6.761425	0.005	6.761425	0.005
0.0749	6.91609	0.005	6.818647	0.005	6.818647	0.005
0.0774	6.97441	0.005	6.873713	0.005	6.873713	0.005
0.0799	7.02626	0.005	6.922315	0.005	6.922315	0.005
0.0824	7.07637	0.005	6.969172	0.005	6.969172	0.005
0.0849	7.12274	0.005	7.012282	0.005	7.012282	0.005
0.0874	7.17086	0.005	7.057148	0.005	7.057148	0.005
0.0899	7.21745	0.005	7.100491	0.005	7.100491	0.005
0.0924	7.25736	0.005	7.137148	0.005	7.137148	0.005
0.0949	7.29657	0.005	7.173102	0.005	7.173102	0.005
0.0974	7.33988	0.005	7.213166	0.005	7.213166	0.005
0.0999	7.37752	0.005	7.24755	0.005	7.24755	0.005
0.1499	7.90877	0.005	7.713755	0.005	7.713755	0.005
0.1999	8.19598	0.005	7.935907	0.005	7.935907	0.005
0.2499	8.38066	0.005	8.055538	0.005	8.055538	0.005
0.2999	8.50801	0.005	8.117842	0.005	8.117842	0.005
0.3499	8.61293	0.005	8.157707	0.005	8.157707	0.005
0.3999	8.69089	0.005	8.170625	0.005	8.170625	0.005
0.4499	8.75779	0.005	8.172475	0.005	8.172475	0.005
0.4999	8.8196	0.005	8.169231	0.005	8.169231	0.005
0.5499	8.86904	0.005	8.15362	0.005	8.15362	0.005
0.5999	8.92056	0.005	8.140094	0.005	8.140094	0.005
0.6499	8.97514	0.005	8.129624	0.005	8.129624	0.005
0.6999	9.01183	0.005	8.101259	0.005	8.101259	0.005
0.75	9.049171	0.005	8.073421	0.005	8.073421	0.005
0.8	9.08369	0.005	8.04289	0.005	8.04289	0.005
0.8499	9.12068	0.005	8.014958	0.005	8.014958	0.005
0.8999	9.15162	0.005	7.980855	0.005	7.980855	0.005
0.95	9.181015	0.005	7.945065	0.005	7.945065	0.005
1.0	9.214058	0.005	7.913058	0.005	7.913058	0.005
1.0999	9.26923	0.005	7.838258	0.005	7.838258	0.005
1.2	9.3205	0.005	7.7593	0.005	7.7593	0.005
1.2999	9.36714	0.005	7.675974	0.005	7.675974	0.005
1.4	9.412479	0.005	7.591079	0.005	7.591079	0.005
1.4999	9.4505	0.005	7.49913	0.005	7.499121	0.005
1.6	9.49121	0.005	7.40961	0.005	7.402948	0.005
1.7	9.53688	0.005	7.32518	0.005	7.30722	0.005
1.8	9.57706	0.005	7.23526	0.005	7.201993	0.005
1.8999	9.61469	0.005	7.14292	0.005	7.089061	0.005