File: data/looselyPackedNP/nanoparticles/vsm/ios-7/kwi338_BGLinSub_rescale.xye
#Extracted data using VSM extraction tool v1.1
#Loaded parameter file: extractVSM.dat
#Desired unit of B: T
#Desired unit of M: memu
#Reading column for B: Applied Field
#Reading column for M: Raw Signal Mx
#Estimate noise level: 5e-3 memu
#Loading data from file: kwi338-Hys-00.VHD
#Save data to file: kwi338.xye
#Extraction performed at: Fri Jul 13 11:41:19 2018
#Unit of B in data: Oe
#Changing unit by multiplying with factor: 0.0001
#Unit of M in data: memu
#Applied image correction factors to M by linear interpolation of following values
#14999.0	1.0
#15247.0	1.000145
#15498.0	1.000209
#15748.0	1.000417
#15998.0	1.000699
#16248.0	1.001107
#16497.0	1.001462
#16747.0	1.001735
#16997.0	1.002153
#17247.0	1.002709
#17497.0	1.003192
#17747.0	1.003685
#17996.0	1.004307
#18246.0	1.004801
#18495.0	1.005497
#18746.0	1.006341
#18995.0	1.007251

#Substracted file: kwi338.xye
#Using Slope: -1.43
#Rescaled file: kwi338_BGLinSub.xye
#Rescale Factor: 0.00534131
#Sigma Scalefactor: 0.0
#B / T	M_scaled / kAm-1	sM_scaled / kAm-1	M_prescaling / memu	sM_prescaling / memu	M_raw / memu	sM_raw / memu
-0.0009	-0.969483	-0.9361	-0.005178313	0.005	-0.003891313	0.005
0.0	-0.248137	-0.9361	-0.001325377	0.005	-0.001325377	0.005
0.0009	0.417182	0.9361	0.0022283	0.005	0.0009412998	0.005
0.0019	2.01212	0.9361	0.0107474	0.005	0.008030376	0.005
0.0029	2.44936	0.9361	0.0130828	0.005	0.008935817	0.005
0.0039	2.58757	0.9361	0.013821	0.005	0.008244018	0.005
0.0049	4.65616	0.9361	0.02487002	0.005	0.01786302	0.005
0.0074	6.66242	0.9361	0.03558606	0.005	0.02500406	0.005
0.0099	9.84892	0.9361	0.0526062	0.005	0.03844916	0.005
0.0124	11.5403	0.9361	0.06164015	0.005	0.04390815	0.005
0.0149	14.4218	0.9361	0.07703123	0.005	0.05572423	0.005
0.0174	16.3632	0.9361	0.08740081	0.005	0.06251881	0.005
0.0199	18.7974	0.9361	0.100403	0.005	0.07194573	0.005
0.0224	21.1163	0.9361	0.112789	0.005	0.08075669	0.005
0.0249	23.7236	0.9361	0.1267152	0.005	0.0911082	0.005
0.0274	25.8448	0.9361	0.138045	0.005	0.09886309	0.005
0.0299	28.2851	0.9361	0.1510794	0.005	0.1083224	0.005
0.0324	30.8225	0.9361	0.1646324	0.005	0.1183004	0.005
0.0349	32.808	0.9361	0.1752378	0.005	0.1253308	0.005
0.0374	35.0156	0.9361	0.1870293	0.005	0.1335473	0.005
0.0399	37.7118	0.9361	0.2014304	0.005	0.1443734	0.005
0.0424	39.3726	0.9361	0.2103012	0.005	0.1496692	0.005
0.0449	41.9408	0.9361	0.224019	0.005	0.1598118	0.005
0.0474	44.1646	0.9361	0.235897	0.005	0.168115	0.005
0.0499	46.6483	0.9361	0.249163	0.005	0.177806	0.005
0.0523	48.8263	0.9361	0.2607963	0.005	0.1860073	0.005
0.0549	51.6271	0.9361	0.275756	0.005	0.1972493	0.005
0.0574	53.4392	0.9361	0.2854356	0.005	0.2033536	0.005
0.0599	55.6675	0.9361	0.2973376	0.005	0.2116806	0.005
0.0623	57.6358	0.9361	0.307851	0.005	0.218762	0.005
0.0649	60.1688	0.9361	0.3213801	0.005	0.2285731	0.005
0.0673	62.1819	0.9361	0.332133	0.005	0.2358941	0.005
0.0698	64.1646	0.9361	0.3427232	0.005	0.2429092	0.005
0.0723	66.1545	0.9361	0.3533516	0.005	0.2499626	0.005
0.0748	68.6113	0.9361	0.3664746	0.005	0.2595106	0.005
0.0773	69.9383	0.9361	0.3735624	0.005	0.2630234	0.005
0.0798	73.5262	0.9361	0.392726	0.005	0.2786122	0.005
0.0824	74.8569	0.9361	0.3998343	0.005	0.2820023	0.005
0.0849	77.1061	0.9361	0.4118478	0.005	0.2904408	0.005
0.0873	78.1632	0.9361	0.4174941	0.005	0.2926551	0.005
0.0899	81.0428	0.9361	0.432875	0.005	0.3043179	0.005
0.0923	81.5278	0.9361	0.4354652	0.005	0.3034762	0.005
0.0948	85.096	0.9361	0.4545241	0.005	0.3189601	0.005
0.0973	86.8552	0.9361	0.46392	0.005	0.3247815	0.005
0.0999	88.1215	0.9361	0.4706842	0.005	0.3278272	0.005
0.1499	125.455	0.9361	0.670095	0.005	0.455738	0.005
0.1998	157.787	0.9361	0.8427897	0.005	0.5570757	0.005
0.2498	181.629	0.9361	0.970136	0.005	0.6129216	0.005
0.2998	202.041	0.9361	1.07916	0.005	0.6504509	0.005
0.3498	220.501	0.9361	1.17777	0.005	0.6775521	0.005
0.3998	232.707	0.9361	1.24296	0.005	0.6712446	0.005
0.4498	243.657	0.9361	1.30145	0.005	0.6582363	0.005
0.4998	252.812	0.9361	1.35035	0.005	0.6356348	0.005
0.5498	260.517	0.9361	1.3915	0.005	0.6052884	0.005
0.5998	266.888	0.9361	1.42553	0.005	0.5678205	0.005
0.6498	273.159	0.9361	1.45903	0.005	0.5298119	0.005
0.6998	277.838	0.9361	1.48402	0.005	0.4833033	0.005
0.7499	284.476	0.9361	1.51948	0.005	0.4471208	0.005
0.7999	289.031	0.9361	1.5438	0.005	0.3999475	0.005
0.8498	292.972	0.9361	1.56486	0.005	0.3496428	0.005
0.8998	292.43	0.9361	1.56196	0.005	0.2752475	0.005
0.9498	298.849	0.9361	1.59625	0.005	0.2380344	0.005
0.9999	301.158	0.9361	1.60858	0.005	0.1787193	0.005
1.0998	305.772	0.9361	1.63322	0.005	0.06050844	0.005
1.1998	311.662	0.9361	1.66468	0.005	-0.05102921	0.005
1.2997	312.674	0.9361	1.67009	0.005	-0.1884842	0.005
1.3998	317.727	0.9361	1.69708	0.005	-0.3046341	0.005
1.4997	318.996	0.9361	1.70386	0.005	-0.4407128	0.005
1.5998	300.163	0.9361	1.60327	0.005	-0.6839691	0.005
1.6997	328.62	0.9361	1.75526	0.005	-0.6738577	0.005
1.7997	330.259	0.9361	1.76402	0.005	-0.806079	0.005
1.8996	336.087	0.9361	1.79515	0.005	-0.9146482	0.005
1.8	331.268	0.9361	1.7694	0.005	-0.8011389	0.005
1.7	330.352	0.9361	1.76451	0.005	-0.6650522	0.005
1.6002	302.344	0.9361	1.61491	0.005	-0.672899	0.005
1.5	321.911	0.9361	1.71943	0.005	-0.4255701	0.005
1.4	316.908	0.9361	1.6927	0.005	-0.3092972	0.005
1.3	314.024	0.9361	1.6773	0.005	-0.1816987	0.005
1.2	309.169	0.9361	1.65137	0.005	-0.06463072	0.005
1.1	303.502	0.9361	1.6211	0.005	0.04810071	0.005
1.0	299.614	0.9361	1.60033	0.005	0.1703317	0.005
0.95	297.451	0.9361	1.58878	0.005	0.2302794	0.005
0.9	292.778	0.9361	1.56382	0.005	0.2768188	0.005
0.85	289.098	0.9361	1.544164	0.005	0.328664	0.005
0.8	282.736	0.9361	1.51018	0.005	0.3661831	0.005
0.75	279.758	0.9361	1.49427	0.005	0.4217744	0.005
0.6999	274.819	0.9361	1.4679	0.005	0.4670385	0.005
0.6499	270.87	0.9361	1.4468	0.005	0.5174449	0.005
0.6	264.648	0.9361	1.41357	0.005	0.555566	0.005
0.55	257.749	0.9361	1.37672	0.005	0.5902171	0.005
0.5	248.953	0.9361	1.32974	0.005	0.6147381	0.005
0.45	241.499	0.9361	1.28992	0.005	0.646419	0.005
0.4	229.719	0.9361	1.227	0.005	0.6550021	0.005
0.35	212.39	0.9361	1.13444	0.005	0.6339399	0.005
0.3	200.801	0.9361	1.072543	0.005	0.643543	0.005
0.25	179.174	0.9361	0.957026	0.005	0.5995255	0.005
0.2001	154.272	0.9361	0.8240158	0.005	0.5378728	0.005
0.15	124.994	0.9361	0.6676307	0.005	0.4531307	0.005
0.1	87.2714	0.9361	0.4661438	0.005	0.3231438	0.005
0.0974	85.8971	0.9361	0.4588034	0.005	0.3195214	0.005
0.0949	84.0854	0.9361	0.449127	0.005	0.3134196	0.005
0.0924	81.0492	0.9361	0.432909	0.005	0.3007771	0.005
0.0899	80.0494	0.9361	0.427569	0.005	0.299012	0.005
0.0874	78.2148	0.9361	0.41777	0.005	0.2927876	0.005
0.0849	74.722	0.9361	0.3991135	0.005	0.2777065	0.005
0.0824	74.0756	0.9361	0.395661	0.005	0.277829	0.005
0.0799	70.2256	0.9361	0.3750967	0.005	0.2608397	0.005
0.0774	69.4684	0.9361	0.3710524	0.005	0.2603704	0.005
0.0749	67.6567	0.9361	0.3613755	0.005	0.2542685	0.005
0.0724	64.7389	0.9361	0.3457907	0.005	0.2422587	0.005
0.0699	62.8279	0.9361	0.3355832	0.005	0.2356262	0.005
0.0673	60.6092	0.9361	0.3237329	0.005	0.2274939	0.005
0.0649	58.7823	0.9361	0.3139747	0.005	0.2211677	0.005
0.0624	57.2476	0.9361	0.3057773	0.005	0.2165453	0.005
0.0599	54.7347	0.9361	0.2923549	0.005	0.2066979	0.005
0.0574	52.5619	0.9361	0.2807495	0.005	0.1986675	0.005
0.0549	50.2917	0.9361	0.268624	0.005	0.1901168	0.005
0.0524	48.1285	0.9361	0.2570695	0.005	0.1821375	0.005
0.0499	45.8144	0.9361	0.2447091	0.005	0.1733521	0.005
0.0474	43.8957	0.9361	0.234461	0.005	0.1666789	0.005
0.0449	41.5301	0.9361	0.221825	0.005	0.157618	0.005
0.0424	39.7336	0.9361	0.2122297	0.005	0.1515977	0.005
0.0399	36.8884	0.9361	0.1970326	0.005	0.1399756	0.005
0.0374	34.7539	0.9361	0.1856313	0.005	0.1321493	0.005
0.0349	32.5544	0.9361	0.1738831	0.005	0.1239761	0.005
0.0324	30.63	0.9361	0.163604	0.005	0.1172723	0.005
0.0299	25.4732	0.9361	0.13606	0.005	0.09330338	0.005
0.0274	26.2558	0.9361	0.1402403	0.005	0.1010583	0.005
0.0249	23.3418	0.9361	0.124676	0.005	0.08906881	0.005
0.0224	21.0754	0.9361	0.11257	0.005	0.08053844	0.005
0.0199	18.6276	0.9361	0.0994958	0.005	0.07103878	0.005
0.0174	17.0146	0.9361	0.09088017	0.005	0.06599817	0.005
0.0149	14.3929	0.9361	0.07687685	0.005	0.05556985	0.005
0.0124	12.0768	0.9361	0.06450613	0.005	0.04677413	0.005
0.0099	9.77418	0.9361	0.05220694	0.005	0.03804994	0.005
0.0074	7.49254	0.9361	0.04001998	0.005	0.02943798	0.005
0.0049	5.33123	0.9361	0.02847577	0.005	0.02146877	0.005
0.004	4.73495	0.9361	0.02529086	0.005	0.01957086	0.005
0.003	3.11852	0.9361	0.01665699	0.005	0.01236699	0.005
0.0019	2.25665	0.9361	0.0120535	0.005	0.009336462	0.005
0.001	1.7941	0.9361	0.009582833	0.005	0.008152833	0.005
0.0	0.498602	0.9361	0.00266319	0.005	0.00266319	0.005
-0.0009	-0.422436	-0.9361	-0.00225636	0.005	-0.0009693606	0.005
-0.0019	-1.51161	-0.9361	-0.008073984	0.005	-0.005356984	0.005
-0.0029	-2.22063	-0.9361	-0.0118611	0.005	-0.007714077	0.005
-0.0038	-3.13975	-0.9361	-0.0167704	0.005	-0.0113364	0.005
-0.0049	-4.05321	-0.9361	-0.02164946	0.005	-0.01464246	0.005
-0.0074	-6.38261	-0.9361	-0.0340915	0.005	-0.0235095	0.005
-0.0098	-8.52287	-0.9361	-0.04552333	0.005	-0.03150933	0.005
-0.0124	-10.7606	-0.9361	-0.05747575	0.005	-0.03974375	0.005
-0.0149	-13.2963	-0.9361	-0.07101981	0.005	-0.04971281	0.005
-0.0174	-14.7241	-0.9361	-0.07864589	0.005	-0.05376389	0.005
-0.0198	-17.5845	-0.9361	-0.09392443	0.005	-0.06561043	0.005
-0.0224	-20.233	-0.9361	-0.108071	0.005	-0.07603863	0.005
-0.0249	-22.1249	-0.9361	-0.118176	0.005	-0.08256906	0.005
-0.0274	-24.4467	-0.9361	-0.130577	0.005	-0.09139525	0.005
-0.0299	-27.1562	-0.9361	-0.1450499	0.005	-0.1022929	0.005
-0.0324	-29.1418	-0.9361	-0.1556557	0.005	-0.1093237	0.005
-0.0349	-30.2257	-0.9361	-0.1614449	0.005	-0.1115379	0.005
-0.0374	-33.304	-0.9361	-0.1778868	0.005	-0.1244048	0.005
-0.0399	-35.7747	-0.9361	-0.1910839	0.005	-0.1340269	0.005
-0.0424	-37.8883	-0.9361	-0.202373	0.005	-0.141741	0.005
-0.0449	-39.9636	-0.9361	-0.213458	0.005	-0.1492509	0.005
-0.0474	-42.2624	-0.9361	-0.2257366	0.005	-0.1579546	0.005
-0.0499	-44.0932	-0.9361	-0.2355155	0.005	-0.1641585	0.005
-0.0524	-46.4589	-0.9361	-0.2481514	0.005	-0.1732194	0.005
-0.0549	-47.2811	-0.9361	-0.2525429	0.005	-0.1740359	0.005
-0.0574	-47.5683	-0.9361	-0.254077	0.005	-0.171995	0.005
-0.0599	-53.6744	-0.9361	-0.2866919	0.005	-0.2010349	0.005
-0.0624	-54.2138	-0.9361	-0.289573	0.005	-0.200341	0.005
-0.0649	-57.5559	-0.9361	-0.3074238	0.005	-0.2146168	0.005
-0.0674	-55.1589	-0.9361	-0.294621	0.005	-0.198239	0.005
-0.0699	-61.2671	-0.9361	-0.3272468	0.005	-0.2272898	0.005
-0.0724	-63.4647	-0.9361	-0.338985	0.005	-0.235453	0.005
-0.0749	-65.4827	-0.9361	-0.3497636	0.005	-0.2426566	0.005
-0.0774	-67.7013	-0.9361	-0.3616139	0.005	-0.2509319	0.005
-0.0799	-69.9868	-0.9361	-0.373821	0.005	-0.2595644	0.005
-0.0824	-71.8157	-0.9361	-0.3835901	0.005	-0.2657581	0.005
-0.0849	-68.6395	-0.9361	-0.366625	0.005	-0.2452178	0.005
-0.0874	-76.0676	-0.9361	-0.406301	0.005	-0.2813187	0.005
-0.0899	-77.5259	-0.9361	-0.41409	0.005	-0.2855328	0.005
-0.0924	-79.6088	-0.9361	-0.425215	0.005	-0.2930835	0.005
-0.0949	-81.6402	-0.9361	-0.4360657	0.005	-0.3003587	0.005
-0.0974	-84.0078	-0.9361	-0.448712	0.005	-0.30943	0.005
-0.0999	-85.6266	-0.9361	-0.457358	0.005	-0.3145012	0.005
-0.1498	-119.939	-0.9361	-0.6406313	0.005	-0.4264173	0.005
-0.1998	-150.446	-0.9361	-0.803577	0.005	-0.5178632	0.005
-0.2498	-175.378	-0.9361	-0.936749	0.005	-0.5795348	0.005
-0.2998	-193.807	-0.9361	-1.03519	0.005	-0.6064717	0.005
-0.3498	-212.545	-0.9361	-1.13527	0.005	-0.6350553	0.005
-0.3997	-224.98	-0.9361	-1.20169	0.005	-0.6301151	0.005
-0.4498	-235.311	-0.9361	-1.25687	0.005	-0.6136545	0.005
-0.4999	-245.606	-0.9361	-1.31186	0.005	-0.5970033	0.005
-0.5498	-251.009	-0.9361	-1.34072	0.005	-0.5545059	0.005
-0.5998	-243.808	-0.9361	-1.30225	0.005	-0.4445392	0.005
-0.6498	-266.629	-0.9361	-1.42415	0.005	-0.4949356	0.005
-0.6998	-269.235	-0.9361	-1.43807	0.005	-0.4373558	0.005
-0.7498	-276.907	-0.9361	-1.47905	0.005	-0.4068353	0.005
-0.7998	-281.613	-0.9361	-1.50418	0.005	-0.3604691	0.005
-0.8498	-283.594	-0.9361	-1.51477	0.005	-0.2995527	0.005
-0.8998	-287.355	-0.9361	-1.53485	0.005	-0.2481362	0.005
-0.9498	-290.799	-0.9361	-1.55325	0.005	-0.1950351	0.005
-0.9997	-293.579	-0.9361	-1.5681	0.005	-0.1385267	0.005
-1.0998	-300.255	-0.9361	-1.60375	0.005	-0.03103995	0.005
-1.1998	-303.562	-0.9361	-1.62142	0.005	0.09429316	0.005
-1.2998	-307.074	-0.9361	-1.64018	0.005	0.2185349	0.005
-1.3997	-310.239	-0.9361	-1.65708	0.005	0.3444899	0.005
-1.4997	-314.108	-0.9361	-1.67775	0.005	0.4668242	0.005
-1.5996	-316.965	-0.9361	-1.69301	0.005	0.5940035	0.005
-1.6997	-319.052	-0.9361	-1.70415	0.005	0.7248565	0.005
-1.7997	-322.777	-0.9361	-1.72405	0.005	0.8458752	0.005
-1.8996	-325.116	-0.9361	-1.73654	0.005	0.9728299	0.005
-1.8	-323.117	-0.9361	-1.72587	0.005	0.844487	0.005
-1.7	-319.592	-0.9361	-1.70704	0.005	0.7223968	0.005
-1.6	-312.218	-0.9361	-1.66765	0.005	0.6199116	0.005
-1.5	-314.069	-0.9361	-1.67754	0.005	0.4674568	0.005
-1.3999	-306.641	-0.9361	-1.63787	0.005	0.3639894	0.005
-1.3	-293.589	-0.9361	-1.56815	0.005	0.290849	0.005
-1.2	-303.337	-0.9361	-1.62022	0.005	0.09578298	0.005
-1.1	-298.9	-0.9361	-1.59652	0.005	-0.02351971	0.005
-0.9999	-294.389	-0.9361	-1.57242	0.005	-0.1425674	0.005
-0.9499	-290.295	-0.9361	-1.55056	0.005	-0.1921983	0.005
-0.8999	-284.642	-0.9361	-1.52036	0.005	-0.2335039	0.005
-0.8499	-285.104	-0.9361	-1.52283	0.005	-0.3074708	0.005
-0.7999	-258.956	-0.9361	-1.38317	0.005	-0.2393098	0.005
-0.7499	-273.564	-0.9361	-1.46119	0.005	-0.3888354	0.005
-0.7	-268.807	-0.9361	-1.43578	0.005	-0.4347845	0.005
-0.65	-264.056	-0.9361	-1.41041	0.005	-0.4809054	0.005
-0.6	-259.096	-0.9361	-1.38391	0.005	-0.525914	0.005
-0.5499	-250.388	-0.9361	-1.3374	0.005	-0.5510461	0.005
-0.5	-244.199	-0.9361	-1.30434	0.005	-0.5893417	0.005
-0.4499	-233.259	-0.9361	-1.24591	0.005	-0.6025537	0.005
-0.3999	-224.573	-0.9361	-1.19951	0.005	-0.6276565	0.005
-0.3499	-197.911	-0.9361	-1.05711	0.005	-0.5567497	0.005
-0.3	-195.42	-0.9361	-1.0438	0.005	-0.6147984	0.005
-0.25	-175.814	-0.9361	-0.939077	0.005	-0.581577	0.005
-0.1999	-148.159	-0.9361	-0.7913636	0.005	-0.5055066	0.005
-0.1499	-121.914	-0.9361	-0.6511822	0.005	-0.4368252	0.005
-0.1	-85.5636	-0.9361	-0.457022	0.005	-0.3140218	0.005
-0.0974	-84.3803	-0.9361	-0.4507017	0.005	-0.3114197	0.005
-0.0949	-81.5027	-0.9361	-0.435331	0.005	-0.2996241	0.005
-0.0924	-80.4035	-0.9361	-0.42946	0.005	-0.2973284	0.005
-0.0899	-78.1543	-0.9361	-0.4174467	0.005	-0.2888897	0.005
-0.0874	-75.8173	-0.9361	-0.4049639	0.005	-0.2799819	0.005
-0.0849	-73.6216	-0.9361	-0.3932361	0.005	-0.2718291	0.005
-0.0824	-72.192	-0.9361	-0.3856001	0.005	-0.2677681	0.005
-0.0799	-69.9963	-0.9361	-0.3738722	0.005	-0.2596152	0.005
-0.0774	-68.2057	-0.9361	-0.3643077	0.005	-0.2536257	0.005
-0.0749	-62.0002	-0.9361	-0.3311623	0.005	-0.2240553	0.005
-0.0724	-63.9385	-0.9361	-0.3415153	0.005	-0.2379833	0.005
-0.0699	-62.0332	-0.9361	-0.3313386	0.005	-0.2313816	0.005
-0.0674	-59.6025	-0.9361	-0.318356	0.005	-0.2219736	0.005
-0.0649	-56.1288	-0.9361	-0.2998015	0.005	-0.2069945	0.005
-0.0624	-54.3151	-0.9361	-0.2901138	0.005	-0.2008818	0.005
-0.0599	-51.2139	-0.9361	-0.2735494	0.005	-0.1878924	0.005
-0.0574	-51.3794	-0.9361	-0.2744335	0.005	-0.1923515	0.005
-0.0549	-49.4951	-0.9361	-0.2643687	0.005	-0.1858617	0.005
-0.0524	-43.1941	-0.9361	-0.2307132	0.005	-0.1557812	0.005
-0.0499	-42.0071	-0.9361	-0.224373	0.005	-0.153016	0.005
-0.0474	-43.2099	-0.9361	-0.2307977	0.005	-0.1630157	0.005
-0.0449	-39.8661	-0.9361	-0.2129375	0.005	-0.1487305	0.005
-0.0424	-38.7536	-0.9361	-0.2069953	0.005	-0.1463633	0.005
-0.0399	-36.4873	-0.9361	-0.1948899	0.005	-0.1378329	0.005
-0.0374	-34.2075	-0.9361	-0.1827131	0.005	-0.1292311	0.005
-0.0349	-31.9928	-0.9361	-0.1708833	0.005	-0.1209763	0.005
-0.0324	-29.4742	-0.9361	-0.157431	0.005	-0.111099	0.005
-0.0299	-27.7007	-0.9361	-0.147958	0.005	-0.1052012	0.005
-0.0274	-24.4123	-0.9361	-0.130394	0.005	-0.09121173	0.005
-0.0249	-21.4811	-0.9361	-0.114737	0.005	-0.07913035	0.005
-0.0224	-20.701	-0.9361	-0.11057	0.005	-0.0785385	0.005
-0.0199	-18.6371	-0.9361	-0.0995467	0.005	-0.07108972	0.005
-0.0174	-15.9448	-0.9361	-0.08516619	0.005	-0.06028419	0.005
-0.0149	-13.6784	-0.9361	-0.07306065	0.005	-0.05175365	0.005
-0.0124	-12.287	-0.9361	-0.0656286	0.005	-0.04789655	0.005
-0.0099	-9.23737	-0.9361	-0.0493397	0.005	-0.03518269	0.005
-0.0074	-7.64537	-0.9361	-0.04083629	0.005	-0.03025429	0.005
-0.0049	-5.23189	-0.9361	-0.02794518	0.005	-0.02093818	0.005
-0.004	-3.80653	-0.9361	-0.02033186	0.005	-0.01461186	0.005
-0.003	-3.56746	-0.9361	-0.0190549	0.005	-0.01476491	0.005
-0.002	-2.72853	-0.9361	-0.01457394	0.005	-0.01171394	0.005
-0.001	-1.31842	-0.9361	-0.00704208	0.005	-0.005612076	0.005
0.0	-0.819541	-0.9361	-0.004377426	0.005	-0.004377426	0.005
0.0009	0.474015	0.9361	0.002531862	0.005	0.001244862	0.005
0.0019	1.26709	0.9361	0.006767906	0.005	0.004050906	0.005
0.0029	2.09454	0.9361	0.0111876	0.005	0.007040617	0.005
0.0039	3.09393	0.9361	0.01652565	0.005	0.01094865	0.005
0.0049	4.33021	0.9361	0.02312901	0.005	0.01612201	0.005
0.0074	5.92221	0.9361	0.0316324	0.005	0.02105039	0.005
0.0099	8.62797	0.9361	0.0460847	0.005	0.0319277	0.005
0.0124	10.8523	0.9361	0.05796555	0.005	0.04023355	0.005
0.0149	12.6907	0.9361	0.06778523	0.005	0.04647823	0.005
0.0174	15.2341	0.9361	0.08137031	0.005	0.05648831	0.005
0.0199	17.5693	0.9361	0.0938429	0.005	0.06538593	0.005
0.0224	19.6083	0.9361	0.104734	0.005	0.07270203	0.005
0.0249	22.1345	0.9361	0.118227	0.005	0.08262012	0.005
0.0274	22.9069	0.9361	0.122353	0.005	0.0831711	0.005
0.0299	26.8353	0.9361	0.1433356	0.005	0.1005786	0.005
0.0324	26.4634	0.9361	0.141349	0.005	0.09501747	0.005
0.0349	30.56	0.9361	0.1632305	0.005	0.1133235	0.005
0.0374	30.2073	0.9361	0.1613466	0.005	0.1078646	0.005
0.0399	34.7603	0.9361	0.1856657	0.005	0.1286087	0.005
0.0424	37.6838	0.9361	0.2012811	0.005	0.1406491	0.005
0.0449	39.6102	0.9361	0.2115703	0.005	0.1473633	0.005
0.0474	42.0848	0.9361	0.224788	0.005	0.1570058	0.005
0.0499	41.0042	0.9361	0.219016	0.005	0.147659	0.005
0.0524	42.5943	0.9361	0.2275093	0.005	0.1525773	0.005
0.0549	48.5514	0.9361	0.2593282	0.005	0.1808212	0.005
0.0574	45.8948	0.9361	0.245138	0.005	0.1630564	0.005
0.0599	47.7523	0.9361	0.2550602	0.005	0.1694032	0.005
0.0624	49.8449	0.9361	0.266237	0.005	0.177005	0.005
0.0648	56.9521	0.9361	0.3041992	0.005	0.2115352	0.005
0.0673	58.6053	0.9361	0.3130292	0.005	0.2167902	0.005
0.0698	60.8621	0.9361	0.3250835	0.005	0.2252695	0.005
0.0723	58.301	0.9361	0.3114036	0.005	0.2080146	0.005
0.0748	64.5027	0.9361	0.3445289	0.005	0.2375649	0.005
0.0774	66.6143	0.9361	0.355808	0.005	0.245126	0.005
0.0798	68.3343	0.9361	0.3649947	0.005	0.2508807	0.005
0.0823	66.0063	0.9361	0.3525602	0.005	0.2348712	0.005
0.0849	72.9779	0.9361	0.389798	0.005	0.2683906	0.005
0.0873	70.1168	0.9361	0.3745159	0.005	0.2496769	0.005
0.0899	76.7675	0.9361	0.410039	0.005	0.281482	0.005
0.0924	75.5111	0.9361	0.4033285	0.005	0.2711965	0.005
0.0949	80.7252	0.9361	0.4311783	0.005	0.2954713	0.005
0.0973	82.682	0.9361	0.4416304	0.005	0.3024914	0.005
0.0999	83.9932	0.9361	0.448634	0.005	0.3057771	0.005
0.1499	117.946	0.9361	0.629988	0.005	0.415631	0.005
0.1999	136.762	0.9361	0.730488	0.005	0.444631	0.005
0.2498	165.847	0.9361	0.885842	0.005	0.5286281	0.005
0.2998	185.455	0.9361	0.990575	0.005	0.5618608	0.005
0.3498	209.392	0.9361	1.11843	0.005	0.6182156	0.005
0.3999	220.284	0.9361	1.1766	0.005	0.6047472	0.005
0.4498	232.573	0.9361	1.24225	0.005	0.5990335	0.005
0.4998	239.946	0.9361	1.28163	0.005	0.5669115	0.005
0.5499	228.427	0.9361	1.2201	0.005	0.4337436	0.005
0.5999	251.235	0.9361	1.34193	0.005	0.4840685	0.005
0.6498	259.582	0.9361	1.386508	0.005	0.457294	0.005
0.6998	249.331	0.9361	1.33176	0.005	0.3310415	0.005
0.7499	260.614	0.9361	1.39202	0.005	0.3196643	0.005
0.7999	277.448	0.9361	1.48194	0.005	0.338082	0.005
0.8498	278.989	0.9361	1.49017	0.005	0.2749517	0.005
0.8998	282.668	0.9361	1.50982	0.005	0.2231063	0.005
0.9498	279.213	0.9361	1.49136	0.005	0.1331494	0.005
0.9999	281.441	0.9361	1.50326	0.005	0.07340608	0.005
1.0998	275.179	0.9361	1.46982	0.005	-0.1028952	0.005
1.1998	297.562	0.9361	1.58937	0.005	-0.1263435	0.005
1.2997	299.985	0.9361	1.60231	0.005	-0.2562584	0.005
1.3998	304.802	0.9361	1.62804	0.005	-0.3736726	0.005
1.4997	304.837	0.9361	1.62823	0.005	-0.5163431	0.005
1.5998	296.808	0.9361	1.58535	0.005	-0.7018781	0.005
1.6997	313.727	0.9361	1.67572	0.005	-0.753233	0.005
1.7997	298.946	0.9361	1.59676	0.005	-0.9726163	0.005
1.8996	320.965	0.9361	1.71437	0.005	-0.9948409	0.005