File: data/monolayers/nanoparticles/Ol_CoFe_C/vsm/DD67_LangevinSAXSscaled.xye
#Executed at: 2018-10-26 14:26:38.5286
#loaded_file	 = ./DD67_BGLinSub.xy
#particle info	 = Superball Model, r = 56.2266 A, p = 1.53774
#fit report	 = [[Fit Statistics]]
#    # fitting method   = leastsq
#    # function evals   = 43
#    # data points      = 352
#    # variables        = 3
#    chi-square         = 66515.9
#    reduced chi-square = 190.59
#    Akaike info crit   = 1851.03
#    Bayesian info crit = 1862.62
#[[Variables]]
#    Ms:   4.31092 +/- 0.02920903 (0.68%) (init = 1)
#    mu:   4685.55 +/- 45.9161 (0.98%) (init = 10000)
#    chi:  2.61325 +/- 0.02025190 (0.77%) (init = 0)
#    T:    300 (fixed)
#[[Correlations]] (unreported correlations are < 0.100)
#    C(Ms, chi) = -0.948
#    C(Ms, mu)  = -0.843
#    C(mu, chi) =  0.734
#Ms Should	 = 42.3362 kA/m
#Rescale Factor	 = 9.82069
#[[Data]]
#B/T	M/kAm-1	sM/kAm-1	M_raw/memu	sM_raw/memu
-0.0009	-0.192666	0.0491035	-0.01961833	0.005
0.0	-0.0290166	0.0491035	-0.002954637	0.005
0.0009	0.194827	0.0491035	0.01983837	0.005
0.0019	0.402251	0.0491035	0.04095956	0.005
0.0029	0.609571	0.0491035	0.06207003	0.005
0.0039	0.755198	0.0491035	0.07689859	0.005
0.0049	0.938941	0.0491035	0.09560837	0.005
0.0074	1.35341	0.0491035	0.1378116	0.005
0.0099	1.85443	0.0491035	0.188829	0.005
0.0124	2.31521	0.0491035	0.235748	0.005
0.0149	2.72019	0.0491035	0.276985	0.005
0.0174	3.25378	0.0491035	0.331319	0.005
0.0199	3.6184	0.0491035	0.368447	0.005
0.0224	4.08493	0.0491035	0.4159513	0.005
0.0249	4.51435	0.0491035	0.459677	0.005
0.0274	4.92797	0.0491035	0.5017944	0.005
0.0299	5.3469	0.0491035	0.544452	0.005
0.0324	5.8213	0.0491035	0.5927582	0.005
0.0349	6.1777	0.0491035	0.629049	0.005
0.0374	6.67157	0.0491035	0.6793384	0.005
0.0399	7.11889	0.0491035	0.724887	0.005
0.0424	7.52578	0.0491035	0.7663185	0.005
0.0449	7.93621	0.0491035	0.808111	0.005
0.0474	8.41945	0.0491035	0.8573174	0.005
0.0499	8.81506	0.0491035	0.8976	0.005
0.0524	9.20606	0.0491035	0.9374148	0.005
0.0549	9.58541	0.0491035	0.976042	0.005
0.0574	9.97598	0.0491035	1.01581	0.005
0.0599	10.3805	0.0491035	1.057	0.005
0.0624	10.746	0.0491035	1.09422	0.005
0.0649	11.19	0.0491035	1.13943	0.005
0.0673	11.5749	0.0491035	1.17862	0.005
0.0698	11.9486	0.0491035	1.21667	0.005
0.0724	12.3526	0.0491035	1.25781	0.005
0.0749	12.7127	0.0491035	1.29448	0.005
0.0774	13.1031	0.0491035	1.33423	0.005
0.0799	13.4576	0.0491035	1.37033	0.005
0.0824	13.8287	0.0491035	1.40812	0.005
0.0849	14.2006	0.0491035	1.44599	0.005
0.0874	14.5062	0.0491035	1.47711	0.005
0.0899	14.8665	0.0491035	1.5138	0.005
0.0924	15.2765	0.0491035	1.55555	0.005
0.0948	15.6162	0.0491035	1.59013	0.005
0.0974	15.8994	0.0491035	1.61897	0.005
0.0999	16.2354	0.0491035	1.65319	0.005
0.1499	22.3212	0.0491035	2.27287	0.005
0.1999	27.1607	0.0491035	2.76566	0.005
0.2498	31.3839	0.0491035	3.19569	0.005
0.2998	35.1678	0.0491035	3.58099	0.005
0.3498	38.2463	0.0491035	3.89446	0.005
0.3999	41.2661	0.0491035	4.20195	0.005
0.4498	43.9543	0.0491035	4.47568	0.005
0.4998	46.3537	0.0491035	4.72	0.005
0.5498	48.6465	0.0491035	4.95347	0.005
0.5999	50.7031	0.0491035	5.16288	0.005
0.6498	52.9776	0.0491035	5.39449	0.005
0.6998	54.8223	0.0491035	5.58232	0.005
0.7499	56.846	0.0491035	5.78839	0.005
0.7999	58.8233	0.0491035	5.98973	0.005
0.8498	60.2762	0.0491035	6.13767	0.005
0.8998	61.8195	0.0491035	6.29481	0.005
0.9499	63.5008	0.0491035	6.46602	0.005
0.9999	65.0204	0.0491035	6.62076	0.005
1.0998	67.6831	0.0491035	6.89188	0.005
1.1998	70.6938	0.0491035	7.19845	0.005
1.2997	73.5211	0.0491035	7.48635	0.005
1.3998	75.9661	0.0491035	7.73531	0.005
1.4998	78.3576	0.0491035	7.97883	0.005
1.5998	80.5882	0.0491035	8.20595	0.005
1.6997	82.4891	0.0491035	8.39952	0.005
1.7997	85.031	0.0491035	8.65835	0.005
1.8996	87.2702	0.0491035	8.88636	0.005
1.8001	85.1394	0.0491035	8.66939	0.005
1.7	83.2738	0.0491035	8.47942	0.005
1.6001	80.5625	0.0491035	8.20334	0.005
1.5	78.0847	0.0491035	7.95104	0.005
1.4001	76.1148	0.0491035	7.75045	0.005
1.3	73.5359	0.0491035	7.487848	0.005
1.2	71.102	0.0491035	7.240015	0.005
1.1	68.3056	0.0491035	6.955269	0.005
1.0	65.5934	0.0491035	6.679105	0.005
0.95	63.279	0.0491035	6.443433	0.005
0.9	62.349	0.0491035	6.348735	0.005
0.85	60.3945	0.0491035	6.149717	0.005
0.8	58.7767	0.0491035	5.98498	0.005
0.75	56.9841	0.0491035	5.802449	0.005
0.7	55.153	0.0491035	5.616002	0.005
0.65	53.051	0.0491035	5.401963	0.005
0.6	50.8352	0.0491035	5.17633	0.005
0.55	49.0266	0.0491035	4.992169	0.005
0.5	46.5205	0.0491035	4.736988	0.005
0.45	44.1259	0.0491035	4.493153	0.005
0.4	41.5276	0.0491035	4.228585	0.005
0.35	38.6055	0.0491035	3.931036	0.005
0.3	35.3129	0.0491035	3.595763	0.005
0.25	31.7679	0.0491035	3.234792	0.005
0.2001	27.5429	0.0491035	2.80458	0.005
0.15	22.5743	0.0491035	2.298647	0.005
0.1	16.5465	0.0491035	1.68486	0.005
0.0974	16.2136	0.0491035	1.65097	0.005
0.0949	15.9327	0.0491035	1.62236	0.005
0.0924	15.5251	0.0491035	1.58085	0.005
0.0899	15.1094	0.0491035	1.53853	0.005
0.0874	14.8405	0.0491035	1.51115	0.005
0.0849	14.4978	0.0491035	1.47625	0.005
0.0824	14.1929	0.0491035	1.4452	0.005
0.0799	13.7003	0.0491035	1.39504	0.005
0.0774	13.3736	0.0491035	1.36178	0.005
0.0749	12.9756	0.0491035	1.32125	0.005
0.0724	12.6787	0.0491035	1.29102	0.005
0.0699	12.1997	0.0491035	1.24224	0.005
0.0674	11.8538	0.0491035	1.20702	0.005
0.0649	11.4895	0.0491035	1.16993	0.005
0.0624	11.069	0.0491035	1.12711	0.005
0.0599	10.6879	0.0491035	1.0883	0.005
0.0574	10.2739	0.0491035	1.04615	0.005
0.0549	9.85987	0.0491035	1.00399	0.005
0.0524	9.49395	0.0491035	0.9667292	0.005
0.0499	9.03984	0.0491035	0.920489	0.005
0.0474	8.63221	0.0491035	0.8789821	0.005
0.0449	8.23743	0.0491035	0.838783	0.005
0.0424	7.81218	0.0491035	0.7954817	0.005
0.0399	7.36529	0.0491035	0.749976	0.005
0.0374	6.89675	0.0491035	0.7022675	0.005
0.0349	6.50598	0.0491035	0.662477	0.005
0.0324	6.06551	0.0491035	0.6176254	0.005
0.0299	5.64587	0.0491035	0.574895	0.005
0.0274	5.19176	0.0491035	0.5286556	0.005
0.0249	4.73766	0.0491035	0.482416	0.005
0.0224	4.30358	0.0491035	0.4382159	0.005
0.0199	3.84146	0.0491035	0.39116	0.005
0.0174	3.38816	0.0491035	0.345002	0.005
0.0149	2.9068	0.0491035	0.295987	0.005
0.0124	2.4575	0.0491035	0.2502373	0.005
0.0099	2.01301	0.0491035	0.204976	0.005
0.0074	1.54287	0.0491035	0.1571042	0.005
0.0049	1.07754	0.0491035	0.109721	0.005
0.0039	0.874898	0.0491035	0.08908723	0.005
0.0029	0.679466	0.0491035	0.06918717	0.005
0.002	0.507906	0.0491035	0.05171789	0.005
0.0009	0.295818	0.0491035	0.0301219	0.005
0.0	0.111432	0.0491035	0.01134661	0.005
-0.0008	-0.121232	0.0491035	-0.01234455	0.005
-0.0019	-0.322899	0.0491035	-0.03287949	0.005
-0.0028	-0.508086	0.0491035	-0.05173627	0.005
-0.0039	-0.708951	0.0491035	-0.07218951	0.005
-0.0048	-0.885321	0.0491035	-0.09014849	0.005
-0.0073	-1.38993	0.0491035	-0.141531	0.005
-0.0098	-1.83682	0.0491035	-0.187036	0.005
-0.0123	-2.3246	0.0491035	-0.236705	0.005
-0.0149	-2.78094	0.0491035	-0.283171	0.005
-0.0173	-3.23602	0.0491035	-0.32951	0.005
-0.0199	-3.70839	0.0491035	-0.377609	0.005
-0.0223	-4.18031	0.0491035	-0.425663	0.005
-0.0249	-4.61661	0.0491035	-0.47009	0.005
-0.0274	-5.07873	0.0491035	-0.5171461	0.005
-0.0299	-5.55448	0.0491035	-0.565589	0.005
-0.0323	-6.00796	0.0491035	-0.611765	0.005
-0.0349	-6.44826	0.0491035	-0.656599	0.005
-0.0373	-6.84483	0.0491035	-0.696981	0.005
-0.0399	-7.29875	0.0491035	-0.743201	0.005
-0.0424	-7.728	0.0491035	-0.7869095	0.005
-0.0449	-8.15244	0.0491035	-0.830128	0.005
-0.0474	-8.54722	0.0491035	-0.8703278	0.005
-0.0499	-9.02302	0.0491035	-0.918776	0.005
-0.0524	-9.40257	0.0491035	-0.9574241	0.005
-0.0549	-9.84384	0.0491035	-1.00236	0.005
-0.0573	-10.2059	0.0491035	-1.03923	0.005
-0.0599	-10.5588	0.0491035	-1.07516	0.005
-0.0624	-11.0626	0.0491035	-1.12646	0.005
-0.0649	-11.3917	0.0491035	-1.15997	0.005
-0.0674	-11.7696	0.0491035	-1.19845	0.005
-0.0699	-12.1644	0.0491035	-1.23865	0.005
-0.0724	-12.5432	0.0491035	-1.27722	0.005
-0.0749	-12.9796	0.0491035	-1.32166	0.005
-0.0774	-13.3143	0.0491035	-1.35574	0.005
-0.0799	-13.7043	0.0491035	-1.39545	0.005
-0.0824	-13.9796	0.0491035	-1.42348	0.005
-0.0849	-14.4016	0.0491035	-1.46646	0.005
-0.0874	-14.7732	0.0491035	-1.50429	0.005
-0.0899	-15.067	0.0491035	-1.5342	0.005
-0.0924	-15.3736	0.0491035	-1.56543	0.005
-0.0949	-15.6962	0.0491035	-1.59827	0.005
-0.0974	-16.0918	0.0491035	-1.63856	0.005
-0.0999	-16.4881	0.0491035	-1.67892	0.005
-0.1497	-22.4185	0.0491035	-2.28278	0.005
-0.1997	-27.4081	0.0491035	-2.79085	0.005
-0.2498	-31.5061	0.0491035	-3.20813	0.005
-0.2998	-35.0078	0.0491035	-3.5647	0.005
-0.3498	-38.0231	0.0491035	-3.87173	0.005
-0.3997	-41.1786	0.0491035	-4.19305	0.005
-0.4498	-43.8537	0.0491035	-4.46543	0.005
-0.4998	-46.3597	0.0491035	-4.72062	0.005
-0.5498	-48.6445	0.0491035	-4.95327	0.005
-0.5998	-50.7385	0.0491035	-5.16649	0.005
-0.6498	-52.7604	0.0491035	-5.37237	0.005
-0.6998	-54.6748	0.0491035	-5.56731	0.005
-0.7498	-56.4746	0.0491035	-5.75057	0.005
-0.7998	-58.5125	0.0491035	-5.95808	0.005
-0.8498	-60.261	0.0491035	-6.13612	0.005
-0.8998	-61.7938	0.0491035	-6.2922	0.005
-0.9498	-63.4477	0.0491035	-6.46061	0.005
-0.9998	-65.3325	0.0491035	-6.65253	0.005
-1.0998	-67.8498	0.0491035	-6.90886	0.005
-1.1997	-70.4082	0.0491035	-7.16937	0.005
-1.2998	-73.2685	0.0491035	-7.46063	0.005
-1.3997	-76.7079	0.0491035	-7.81084	0.005
-1.4997	-78.7387	0.0491035	-8.01763	0.005
-1.5996	-81.179	0.0491035	-8.26611	0.005
-1.6997	-83.4452	0.0491035	-8.49687	0.005
-1.7997	-84.8642	0.0491035	-8.64136	0.005
-1.8996	-86.8284	0.0491035	-8.84137	0.005
-1.8	-84.7667	0.0491035	-8.63144	0.005
-1.7	-82.7879	0.0491035	-8.42994	0.005
-1.6	-80.3924	0.0491035	-8.18602	0.005
-1.5	-78.3525	0.0491035	-7.97831	0.005
-1.3999	-76.0751	0.0491035	-7.7464	0.005
-1.3	-73.6064	0.0491035	-7.495035	0.005
-1.2	-70.9223	0.0491035	-7.221724	0.005
-1.1	-68.0571	0.0491035	-6.929966	0.005
-0.9999	-64.7447	0.0491035	-6.59268	0.005
-0.9499	-63.6968	0.0491035	-6.48598	0.005
-0.8999	-61.7383	0.0491035	-6.28655	0.005
-0.8499	-60.1397	0.0491035	-6.12378	0.005
-0.7999	-58.3736	0.0491035	-5.94394	0.005
-0.7499	-56.7847	0.0491035	-5.78214	0.005
-0.7	-54.7049	0.0491035	-5.570371	0.005
-0.65	-53.1127	0.0491035	-5.408248	0.005
-0.5999	-50.7391	0.0491035	-5.16655	0.005
-0.5499	-48.775	0.0491035	-4.96655	0.005
-0.5	-46.5405	0.0491035	-4.739028	0.005
-0.4499	-44.0339	0.0491035	-4.48378	0.005
-0.3999	-41.2705	0.0491035	-4.2024	0.005
-0.3499	-38.4325	0.0491035	-3.91342	0.005
-0.2999	-35.269	0.0491035	-3.59129	0.005
-0.25	-31.5963	0.0491035	-3.217321	0.005
-0.1999	-27.5633	0.0491035	-2.80665	0.005
-0.1499	-22.6378	0.0491035	-2.30511	0.005
-0.1	-16.5746	0.0491035	-1.687718	0.005
-0.0974	-16.2393	0.0491035	-1.65358	0.005
-0.0949	-15.911	0.0491035	-1.62015	0.005
-0.0924	-15.5635	0.0491035	-1.58477	0.005
-0.0899	-15.1503	0.0491035	-1.54269	0.005
-0.0874	-14.8726	0.0491035	-1.51441	0.005
-0.0849	-14.5203	0.0491035	-1.47854	0.005
-0.0824	-14.0798	0.0491035	-1.43369	0.005
-0.0799	-13.7684	0.0491035	-1.40198	0.005
-0.0774	-13.449	0.0491035	-1.36945	0.005
-0.0749	-13.051	0.0491035	-1.32893	0.005
-0.0724	-12.6923	0.0491035	-1.2924	0.005
-0.0699	-12.247	0.0491035	-1.24706	0.005
-0.0674	-11.8786	0.0491035	-1.20955	0.005
-0.0649	-11.5071	0.0491035	-1.17172	0.005
-0.0624	-11.1925	0.0491035	-1.13969	0.005
-0.0599	-10.6831	0.0491035	-1.08781	0.005
-0.0574	-10.3484	0.0491035	-1.05374	0.005
-0.0549	-9.91276	0.0491035	-1.00938	0.005
-0.0524	-9.51558	0.0491035	-0.9689314	0.005
-0.0499	-9.09354	0.0491035	-0.925957	0.005
-0.0474	-8.66027	0.0491035	-0.8818384	0.005
-0.0449	-8.29354	0.0491035	-0.844496	0.005
-0.0424	-7.82742	0.0491035	-0.7970331	0.005
-0.0399	-7.39093	0.0491035	-0.752587	0.005
-0.0374	-6.96488	0.0491035	-0.7092049	0.005
-0.0349	-6.56449	0.0491035	-0.668435	0.005
-0.0324	-6.1128	0.0491035	-0.6224406	0.005
-0.0299	-5.68996	0.0491035	-0.579385	0.005
-0.0274	-5.21742	0.0491035	-0.531268	0.005
-0.0249	-4.77935	0.0491035	-0.486661	0.005
-0.0224	-4.32443	0.0491035	-0.4403382	0.005
-0.0199	-3.85108	0.0491035	-0.39214	0.005
-0.0174	-3.42744	0.0491035	-0.3490019	0.005
-0.0149	-2.95089	0.0491035	-0.300477	0.005
-0.0124	-2.49117	0.0491035	-0.2536657	0.005
-0.0099	-2.03466	0.0491035	-0.207181	0.005
-0.0074	-1.56773	0.0491035	-0.1596349	0.005
-0.0049	-1.08155	0.0491035	-0.11013	0.005
-0.004	-0.921214	0.0491035	-0.0938033	0.005
-0.003	-0.716163	0.0491035	-0.07292386	0.005
-0.002	-0.516724	0.0491035	-0.0526158	0.005
-0.001	-0.335723	0.0491035	-0.03418529	0.005
0.0	-0.141895	0.0491035	-0.01444859	0.005
0.0009	0.076161	0.0491035	0.007755158	0.005
0.0019	0.285221	0.0491035	0.02904283	0.005
0.0029	0.482255	0.0491035	0.04910601	0.005
0.0039	0.696126	0.0491035	0.07088354	0.005
0.0049	0.87472	0.0491035	0.08906907	0.005
0.0074	1.3609	0.0491035	0.1385744	0.005
0.0099	1.84386	0.0491035	0.187752	0.005
0.0124	2.3092	0.0491035	0.2351358	0.005
0.0149	2.79857	0.0491035	0.284967	0.005
0.0174	3.23985	0.0491035	0.3299004	0.005
0.0199	3.70277	0.0491035	0.377038	0.005
0.0224	4.19616	0.0491035	0.4272774	0.005
0.0249	4.64226	0.0491035	0.472702	0.005
0.0274	5.10919	0.0491035	0.5202478	0.005
0.0299	5.54486	0.0491035	0.56461	0.005
0.0324	6.02703	0.0491035	0.6137074	0.005
0.0349	6.45228	0.0491035	0.657009	0.005
0.0374	6.88393	0.0491035	0.7009615	0.005
0.0399	7.29954	0.0491035	0.743282	0.005
0.0424	7.73039	0.0491035	0.7871528	0.005
0.0449	8.20135	0.0491035	0.835109	0.005
0.0474	8.63702	0.0491035	0.8794719	0.005
0.0499	9.00218	0.0491035	0.916654	0.005
0.0524	9.38172	0.0491035	0.9553008	0.005
0.0549	9.85987	0.0491035	1.00399	0.005
0.0574	10.2603	0.0491035	1.04476	0.005
0.0599	10.6206	0.0491035	1.08145	0.005
0.0624	10.9729	0.0491035	1.11732	0.005
0.0648	11.4384	0.0491035	1.16472	0.005
0.0673	11.7931	0.0491035	1.20084	0.005
0.0698	12.0836	0.0491035	1.23043	0.005
0.0724	12.5865	0.0491035	1.28163	0.005
0.0749	12.9195	0.0491035	1.31554	0.005
0.0774	13.2702	0.0491035	1.35125	0.005
0.0799	13.6401	0.0491035	1.38892	0.005
0.0823	13.995	0.0491035	1.42505	0.005
0.0849	14.3207	0.0491035	1.45822	0.005
0.0874	14.7267	0.0491035	1.49956	0.005
0.0899	15.0998	0.0491035	1.53755	0.005
0.0924	15.4136	0.0491035	1.56951	0.005
0.0949	15.7435	0.0491035	1.60309	0.005
0.0974	16.184	0.0491035	1.64795	0.005
0.0999	16.4192	0.0491035	1.6719	0.005
0.1499	22.3492	0.0491035	2.27573	0.005
0.1999	27.1913	0.0491035	2.76878	0.005
0.2498	31.3947	0.0491035	3.19679	0.005
0.2998	35.0022	0.0491035	3.56413	0.005
0.3499	38.1359	0.0491035	3.88322	0.005
0.3999	41.1735	0.0491035	4.19252	0.005
0.4498	43.8889	0.0491035	4.46903	0.005
0.4998	45.9701	0.0491035	4.68094	0.005
0.5499	48.3173	0.0491035	4.91994	0.005
0.5998	50.7658	0.0491035	5.16927	0.005
0.6498	52.6578	0.0491035	5.36192	0.005
0.6998	54.5754	0.0491035	5.55718	0.005
0.7499	56.6123	0.0491035	5.76459	0.005
0.7999	58.5829	0.0491035	5.96525	0.005
0.8498	60.1287	0.0491035	6.12265	0.005
0.8998	61.5284	0.0491035	6.26518	0.005
0.9499	63.2736	0.0491035	6.44288	0.005
0.9999	64.6541	0.0491035	6.58345	0.005
1.0998	67.6085	0.0491035	6.88429	0.005
1.1998	70.6052	0.0491035	7.18943	0.005
1.2997	72.9551	0.0491035	7.42871	0.005
1.3998	76.0744	0.0491035	7.74633	0.005
1.4997	78.0187	0.0491035	7.94431	0.005
1.5998	79.9136	0.0491035	8.13726	0.005
1.6996	82.1678	0.0491035	8.36681	0.005
1.7997	84.6461	0.0491035	8.61916	0.005
1.8997	86.4051	0.0491035	8.79827	0.005