File: data/looselyPackedNP/nanoparticles/sas/ios-7/saxs_KWi338.xye
#Reducing manually
#Set Sample to: KWi338
#Set Solvent to: Cyclohexane
#Set Pixel size to: 0.172
#Set Wavelength to: 1.3414e-10
#Set Time Sample LSDD to: 3300
#Set Time Sample SSDD to: 20000
#Set Time Solvent LSDD to: 5940
#Set Time Solvent SSDD to: 5400
#Set Time EC LSDD to: 5940
#Set Time EC SSDD to: 5400
#Set Monitor Sample LSDD to: 6930000
#Set Monitor Sample SSDD to: 40000000
#Set Monitor Solvent LSDD to: 9783180
#Set Monitor Solvent SSDD to: 14715000
#Set Monitor EC LSDD to: 9783180
#Set Monitor EC SSDD to: 14715000
#Set Transmission Sample to: 0.5261
#Set Transmission Solvent to: 0.55655
#Set Transmission EC to: 0.61075
#Set Thickness Sample to: 0.1664
#Set Thickness Solvent to: 0.14905
#Set FEP distance to: 3391
#Set FEP CF to: 1.211756
#Set FEP Peak Intensity to: 26.53
#Set Monitor FEP to: 988200
#Set LSDD to: 3531
#Set Beamcenter LSDD y to: 599.6
#Set Beamcenter LSDD z to: 347.5
#Set SSDD to: 836
#Set Beamcenter SSDD y to: 611.9
#Set Beamcenter SSDD z to: 387.5
#Set TIF File Sample LSDD to: KWi338_LSDD_3300s.tif
#Set TIF File Sample SSDD to: KWi338_SSDD_20000s.tif
#Set TIF File Solvent LSDD to: CHEX_LSDD_5940s.tif
#Set TIF File Solvent SSDD to: CHEX_SSDD_5400s.tif
#Set TIF File EC LSDD to: EC_LSDD_5940s.tif
#Set TIF File EC SSDD to: EC_SSDD_5400s.tif
#Set SCALEFACTOR SOLVENT to: 1

#LSDD Data
#q / A-1	I / cm-1	sI / cm-1	q_sample / A-1	I_sample / cm-1	sI_sample / cm-1	q_solvent / A-1	I_solvent / cm-1	sI_solvent / cm-1	q_raw_sample / A-1	I_raw_sample / a.u.	sI_raw_sample / a.u.	q_raw_solvent / A-1	I_raw_solvent / a.u.	sI_raw_solvent / a.u.	q_raw_ec / A-1	I_raw_ec / a.u.	sI_raw_ec / a.u.
#0.00206916	-102.446	0.35547	0.00206916	-3897.92	8.67425	0.00326174	398.586	11.0374	0.000675581	192.913	3.00887	0.00326174	2164.81	3.55537	0.00326174	2184.602	3.57159
#0.00346274	-102.599	0.348618	0.00346274	-3904.4	8.15921	0.00463806	54.7993	2.96239	0.00206916	193.165	1.29789	0.00463806	348.743	0.951475	0.00463806	356.427	0.9619
#0.00485632	-3.44423	0.112432	0.00485632	-84.8303	3.43211	0.00601437	29.3288	0.824538	0.00346274	191.268	0.971168	0.00601437	39.99879	0.282971	0.00601437	29.8218	0.244335
# 0.0062499	13.3388	0.0627309	0.0062499	598.202	2.4949	0.00739068	13.5387	0.40229	0.00485632	192.669	0.814093	0.00739068	12.7356	0.144038	0.00739068	7.470707	0.110319
# 0.00764348	15.0693	0.0528485	0.00764348	653.937	2.19489	0.00876699	4.84042	0.216825	0.0062499	193.113	0.714156	0.00876699	4.426732	0.0779704	0.00876699	2.52123	0.0588429
# 0.00903706	16.3456	0.0483653	0.00903706	698.332	2.03597	0.0101433	3.09114	0.142812	0.00764348	195.773	0.638281	0.0101433	2.36049	0.0529327	0.0101433	1.09208	0.0360039
# 0.0104306	15.6182	0.0438745	0.0104306	665.541	1.85309	0.0115196	2.13341	0.116397	0.00903706	205.7347	0.594267	0.0115196	1.739302	0.042637	0.0115196	0.8693777	0.0301442
0.0118242	15.4654	0.0405837	0.0118242	657.994	1.71552	0.0128959	2.00938	0.108427	0.0104306	195.274	0.541427	0.0128959	1.62625	0.0397625	0.0128959	0.804759	0.0279713
0.0132178	15.6365	0.0381085	0.0132178	665.108	1.61096	0.0142722	1.38583	0.0993144	0.0118242	192.931	0.501305	0.0142722	1.30979	0.0355494	0.0142722	0.7563058	0.0270134
0.0146114	16.2977	0.0375097	0.0146114	692.442	1.58625	0.0156485	1.38107	0.0967575	0.0132178	194.972	0.470758	0.0156485	1.29855	0.0346553	0.0156485	0.746252	0.0262713
0.016005	16.6359	0.0361582	0.016005	706.691	1.52909	0.0170249	1.29966	0.0939773	0.0146114	202.935	0.463548	0.0170249	1.26053	0.0335103	0.0170249	0.743539	0.0257368
0.0173985	16.9921	0.0343612	0.0173985	721.581	1.45306	0.0184012	1.18427	0.0887872	0.016005	207.1069	0.446838	0.0184012	1.21337	0.0314212	0.0184012	0.747085	0.0246554
0.0187921	13.9751	0.0286973	0.0187921	593.814	1.21267	0.0197775	1.23919	0.0849251	0.0173985	211.466	0.424604	0.0197775	1.22832	0.0301731	0.0197775	0.7371708	0.0233749
0.0201857	13.4946	0.0268363	0.0201857	573.266	1.13395	0.0211538	1.15875	0.0795601	0.0187921	174.082	0.354294	0.0211538	1.175109	0.0281704	0.0211538	0.71733	0.0220096
0.0215793	13.0667	0.0253436	0.0215793	555.164	1.07079	0.0225301	1.17104	0.0772441	0.0201857	168.087	0.331275	0.0225301	1.19765	0.0273105	0.0225301	0.7361772	0.0214119
0.0229729	12.7435	0.0241338	0.0229729	541.451	1.01956	0.0239064	0.986649	0.0738965	0.0215793	162.786	0.31282	0.0239064	1.137665	0.0257477	0.0239064	0.758717	0.0210267
0.0243664	12.507	0.0236656	0.0243664	531.123	0.99987	0.0252827	0.984846	0.0746146	0.0229729	158.785	0.297839	0.0252827	1.11482	0.0260568	0.0252827	0.734511	0.0211503
0.02576	12.2229	0.0233304	0.02576	519.213	0.985676	0.026659	1.01226	0.071013	0.0243664	155.7622	0.292077	0.026659	1.13484	0.0248107	0.026659	0.7433429	0.0200801
0.0271536	11.8017	0.0217147	0.0271536	501.413	0.917352	0.0280353	1.01767	0.0671866	0.02576	152.2771	0.287936	0.0280353	1.10913	0.0235372	0.0280353	0.712537	0.0188655
0.0285472	11.4805	0.0205879	0.0285472	487.728	0.869782	0.0294116	0.915855	0.0623637	0.0271536	147.05	0.267977	0.0294116	1.06764	0.0216605	0.0294116	0.7157991	0.0177358
0.0299408	11.1478	0.0196903	0.0299408	473.585	0.831898	0.030788	0.760547	0.0613204	0.0285472	143.055	0.254077	0.030788	1.03504	0.020968	0.030788	0.7544538	0.0179017
0.0313344	10.6546	0.0194199	0.0313344	452.663	0.820322	0.0321643	0.86083	0.0623291	0.0299408	138.911	0.243011	0.0321643	1.04579	0.0215548	0.0321643	0.718187	0.0178625
0.0327279	10.079	0.0190433	0.0327279	428.344	0.804345	0.0335406	0.999064	0.0620085	0.0313344	132.794	0.239616	0.0335406	1.066904	0.0217549	0.0335406	0.6751152	0.0173055
0.0341215	9.63414	0.0185663	0.0341215	409.332	0.783987	0.0349169	0.975713	0.0612787	0.0327279	125.656	0.234951	0.0349169	1.0763	0.0214107	0.0349169	0.696621	0.0172251
0.0355151	9.55174	0.0176534	0.0355151	405.73	0.745464	0.0362932	0.813502	0.0574444	0.0341215	120.134	0.228972	0.0362932	1.01428	0.019788	0.0362932	0.7062902	0.0165126
0.0369087	9.32923	0.0168434	0.0369087	396.412	0.711218	0.0376695	0.932244	0.0559925	0.0355151	119.088	0.217714	0.0376695	1.04427	0.0195003	0.0376695	0.6822996	0.0157624
0.0383023	9.05996	0.0161588	0.0383023	385.048	0.682251	0.0390458	0.915849	0.0544321	0.0369087	116.34	0.207716	0.0390458	1.03406	0.0189298	0.0390458	0.67895	0.0153388
0.0396958	8.80257	0.0155239	0.0396958	374.05	0.655342	0.0404221	0.792701	0.0522725	0.0383023	113.004	0.199255	0.0404221	0.98379	0.0179829	0.0404221	0.6828034	0.0149816
0.0410894	8.50946	0.0149094	0.0410894	361.715	0.629371	0.0417984	0.887198	0.0515477	0.0396958	109.805	0.191379	0.0417984	1.01301	0.0178845	0.0417984	0.6695842	0.0145402
0.042483	8.2357	0.0143941	0.042483	350.132	0.607534	0.0431748	0.857262	0.051099	0.0410894	106.172	0.183799	0.0431748	1.01845	0.0176477	0.0431748	0.6899035	0.0145248
0.0438766	7.9434	0.0139155	0.0438766	337.676	0.587288	0.0445511	0.878267	0.0504883	0.042483	102.781	0.177415	0.0445511	1.03192	0.0174517	0.0445511	0.6946099	0.0143181
0.0452702	7.61501	0.0133891	0.0452702	323.761	0.564896	0.0459274	0.847606	0.0484	0.0438766	99.13674	0.171494	0.0459274	0.983223	0.0167393	0.0459274	0.65587	0.0136716
0.0466637	7.34472	0.0129304	0.0466637	312.324	0.545421	0.0473037	0.858811	0.0484774	0.0452702	95.08118	0.164938	0.0473037	1.01549	0.0167293	0.0473037	0.685908	0.0137491
0.0480573	7.04469	0.0124565	0.0480573	299.548	0.525409	0.04868	0.745125	0.0473315	0.0466637	91.73854	0.159241	0.04868	0.978059	0.0161544	0.04868	0.699314	0.0136598
0.0494509	6.7757	0.0120216	0.0494509	288.025	0.507062	0.0500563	0.841105	0.0459302	0.0480573	87.99184	0.153392	0.0500563	0.97334	0.0158672	0.0500563	0.648139	0.012948
0.0508445	6.48407	0.0115914	0.0508445	275.757	0.488683	0.0514326	0.868968	0.0454124	0.0494509	84.61751	0.148028	0.0514326	0.9844398	0.0157197	0.0514326	0.646967	0.0127436
0.0522381	6.21975	0.0111876	0.0522381	264.645	0.471617	0.0528089	0.807673	0.0445284	0.0508445	81.04209	0.142645	0.0528089	0.9626622	0.0153202	0.0528089	0.6524431	0.0126124
0.0536316	5.95042	0.010792	0.0536316	253.21	0.454804	0.0541852	0.874162	0.0442641	0.0522381	77.76565	0.137667	0.0541852	0.989069	0.0153121	0.0541852	0.6495576	0.0124089
0.0550252	5.68206	0.0104015	0.0550252	241.707	0.438288	0.0555615	0.790552	0.0428274	0.0536316	74.4282	0.132744	0.0555615	0.9396265	0.0147226	0.0555615	0.6353691	0.0121065
0.0564188	5.41947	0.0100262	0.0564188	230.639	0.422385	0.0569379	0.797435	0.0422705	0.0550252	71.06885	0.127909	0.0569379	0.9406409	0.0145365	0.0569379	0.633184	0.0119265
0.0578124	5.16265	0.00966466	0.0578124	219.716	0.407014	0.0583142	0.812229	0.0419635	0.0564188	67.8171	0.123263	0.0583142	0.95206	0.0144363	0.0583142	0.6386252	0.0118235
0.059206	4.90411	0.00930719	0.059206	208.776	0.391808	0.0596905	0.698992	0.0409144	0.0578124	64.6301	0.118761	0.0596905	0.9075719	0.013919	0.0596905	0.644072	0.0117256
0.0605995	4.63567	0.00894221	0.0605995	197.348	0.376316	0.0610668	0.743402	0.0401905	0.059206	61.4315	0.11431	0.0610668	0.9073502	0.0137485	0.0610668	0.6225453	0.0113881
0.0619931	4.41388	0.00868949	0.0619931	188.098	0.365597	0.0624431	0.866911	0.0409633	0.0605995	58.0915	0.109774	0.0624431	0.9487904	0.0141906	0.0624431	0.6088317	0.0113674
0.0633867	4.31802	0.00875215	0.0633867	183.978	0.368195	0.0638194	0.814107	0.0411729	0.0619931	55.36219	0.10665	0.0638194	0.9311778	0.0141946	0.0638194	0.614809	0.011534
0.0647803	4.15503	0.00861919	0.0647803	177.052	0.362536	0.0651957	0.811212	0.0411585	0.0633867	54.15944	0.107402	0.0651957	0.9266518	0.0141919	0.0651957	0.6112296	0.0115262
0.0661739	3.91071	0.00822337	0.0661739	166.596	0.345666	0.066572	0.804579	0.0397701	0.0647803	52.1279	0.105745	0.066572	0.9147337	0.0137037	0.066572	0.6013299	0.0111108
0.0675674	3.61154	0.0077001	0.0675674	153.873	0.323438	0.0679483	0.76122	0.0387825	0.0661739	49.0829	0.100794	0.0679483	0.899485	0.0132942	0.0679483	0.6053754	0.0109063
0.068961	3.37667	0.0073306	0.068961	143.963	0.307812	0.0693247	0.782168	0.0377566	0.0675674	45.3749	0.0942833	0.0693247	0.885637	0.0129901	0.0693247	0.5801402	0.0105136
0.0703546	3.17196	0.00702252	0.0703546	135.351	0.294711	0.070701	0.761845	0.0376592	0.068961	42.45576	0.0897215	0.070701	0.8940923	0.012903	0.070701	0.599158	0.0105626
0.0717482	2.97378	0.00673311	0.0717482	126.928	0.282336	0.0720773	0.772621	0.0375528	0.0703546	39.927	0.0858914	0.0720773	0.909785	0.0128591	0.0720773	0.6112145	0.0105399
0.0731418	2.77709	0.00643642	0.0731418	118.593	0.269758	0.0734536	0.775979	0.0367124	0.0717482	37.47956	0.082258	0.0734536	0.892841	0.0125917	0.0734536	0.5910112	0.0102446
0.0745353	2.57902	0.0061423	0.0745353	110.187	0.257249	0.0748299	0.767017	0.0360955	0.0731418	35.0301	0.0785804	0.0748299	0.8814797	0.0123727	0.0748299	0.582839	0.0100608
0.0759289	2.40351	0.00587832	0.0759289	102.799	0.24594	0.0762062	0.814281	0.0359592	0.0745353	32.56685	0.0749169	0.0762062	0.900981	0.0123759	0.0762062	0.581588	0.00994324
0.0773225	2.24027	0.00562279	0.0773225	95.7822	0.235102	0.0775825	0.727611	0.035195	0.0759289	30.4058	0.0716019	0.0775825	0.865422	0.012005	0.0775825	0.5841015	0.00986263
0.0787161	2.07907	0.00537406	0.0787161	89.0143	0.224476	0.0789588	0.786414	0.0348282	0.0773225	28.3555	0.0684223	0.0789588	0.876012	0.01196	0.0789588	0.5675419	0.00962661
0.0801097	1.8417	0.00515713	0.0801097	78.924	0.214963	0.0803351	0.761651	0.0356774	0.0787161	26.36631	0.0653126	0.0803351	0.8806177	0.0122144	0.0803351	0.584464	0.00995074
0.0815032	1.64583	0.00492836	0.0815032	70.7112	0.205049	0.0817114	0.842818	0.0358748	0.0801097	23.4261	0.0624975	0.0817114	0.897961	0.0124018	0.0817114	0.5645985	0.00983389
0.0828968	1.48667	0.00470619	0.0828968	63.9	0.195534	0.0830878	0.785531	0.0354791	0.0815032	21.0123	0.0595881	0.0830878	0.8683102	0.0122065	0.0830878	0.559514	0.00979845
0.0842904	1.33194	0.00446424	0.0842904	57.3265	0.185185	0.0844641	0.772706	0.0349415	0.0828968	19.0175	0.0567897	0.0844641	0.84503	0.0120292	0.0844641	0.5401128	0.00961707
0.085684	1.19854	0.00425904	0.085684	51.5938	0.176119	0.0858404	0.703158	0.0356105	0.0842904	17.0835	0.0537537	0.0858404	0.859433	0.0121194	0.0858404	0.5892486	0.0100352
0.0870776	1.08171	0.0040872	0.0870776	46.6509	0.168693	0.0872167	0.711776	0.035421	0.085684	15.4371	0.0510521	0.0872167	0.839218	0.0120993	0.0872167	0.5629343	0.0099095
0.0884711	0.970444	0.00398805	0.0884711	41.9382	0.164241	0.088593	0.715662	0.0359082	0.0870776	13.97564	0.0488701	0.088593	0.830432	0.0122961	0.088593	0.551431	0.0100199
0.0898647	0.860139	0.00382552	0.0898647	37.3497	0.157057	0.0899693	0.794077	0.0361953	0.0884711	12.5905	0.0475471	0.0899693	0.842278	0.012529	0.0899693	0.526851	0.00990907
0.0912583	0.767482	0.00367289	0.0912583	33.3213	0.150346	0.0913456	0.704043	0.0362636	0.0898647	11.2338	0.0454334	0.0913456	0.813359	0.0124312	0.0913456	0.538263	0.0101127
0.0926519	0.681811	0.00353764	0.0926519	29.4816	0.143794	0.0927219	0.51786	0.0381484	0.0912583	10.06274	0.0434312	0.0927219	0.8387787	0.0127063	0.0927219	0.6553835	0.0112316
0.0940455	0.605581	0.00336362	0.0940455	26.4867	0.136423	0.0940982	0.729821	0.0371595	0.0926519	9.011417	0.0413832	0.0940982	0.840483	0.0127548	0.0940982	0.555675	0.010371
0.095439	0.537761	0.00321864	0.095439	23.6684	0.130033	0.0954746	0.780685	0.0370256	0.0940455	8.074802	0.0392796	0.0954746	0.838046	0.0128115	0.0954746	0.5286247	0.0101751
0.0968326	0.469666	0.00305551	0.0968326	20.6909	0.122867	0.0968509	0.69928	0.0367327	0.095439	7.23418	0.0374004	0.0968509	0.803481	0.012608	0.0968509	0.5297054	0.0102371
0.0982262	0.412561	0.00293069	0.0982262	18.3064	0.116938	0.0982272	0.731834	0.037584	0.0968326	6.36415	0.0352612	0.0982272	0.83589	0.0129194	0.0982272	0.5496697	0.0104765
0.0996198	0.359144	0.00279369	0.0996198	16.0639	0.110689	0.0996035	0.751536	0.0377243	0.0982262	5.679056	0.0334654	0.0996035	0.839635	0.0130022	0.0996035	0.544338	0.010469
0.101013	0.314895	0.00266179	0.101013	14.1115	0.104865	0.10098	0.682937	0.0373223	0.0996198	5.02006	0.0315968	0.10098	0.8054096	0.0127828	0.10098	0.5396542	0.0104634
0.102407	0.276564	0.00255235	0.102407	12.4885	0.0997785	0.102356	0.684682	0.0374864	0.101013	4.44629	0.0298504	0.102356	0.807169	0.0128418	0.102356	0.5407485	0.010511
0.103801	0.235525	0.00243509	0.103801	10.8407	0.0941317	0.103732	0.766974	0.0379543	0.102407	3.97236	0.0283138	0.103732	0.8372848	0.0131207	0.103732	0.53436	0.0104818
0.105194	0.203649	0.00232093	0.105194	9.40945	0.0889649	0.105109	0.695375	0.0376394	0.103801	3.4866	0.0266133	0.105109	0.8068731	0.012919	0.105109	0.5352993	0.0105227
0.106588	0.170776	0.0022051	0.106588	8.13439	0.083553	0.106485	0.801524	0.0375486	0.105194	3.06865	0.0250411	0.106485	0.822121	0.0130763	0.106485	0.501162	0.0102095
0.107981	0.150403	0.00211854	0.107981	7.25632	0.0795996	0.107861	0.788586	0.0372531	0.106588	2.67497	0.0234444	0.107861	0.8094542	0.0129687	0.107861	0.4934622	0.0101258
0.109375	0.13188	0.00203497	0.109375	6.34433	0.0757377	0.109238	0.675081	0.036995	0.107981	2.41351	0.0222512	0.109238	0.7776496	0.012701	0.109238	0.5129556	0.0103154
0.110768	0.115736	0.00203244	0.110768	5.79704	0.0749584	0.110614	0.797847	0.0380527	0.109375	2.15872	0.0210328	0.110614	0.8100228	0.0132782	0.110614	0.489648	0.0103237
0.112162	0.104506	0.00204654	0.112162	5.21269	0.0748232	0.11199	0.700876	0.0393343	0.110768	1.98446	0.0207912	0.11199	0.786489	0.0135789	0.11199	0.510295	0.0109377
0.113556	0.0938247	0.00202869	0.113556	4.83044	0.0736945	0.113367	0.764062	0.0397087	0.112162	1.82618	0.020632	0.113367	0.7843434	0.013863	0.113367	0.477658	0.0108184
0.114949	0.0801269	0.00192007	0.114949	4.11136	0.0686837	0.114743	0.640095	0.0391248	0.113556	1.69449	0.0203055	0.114743	0.7594654	0.0134228	0.114743	0.5097672	0.010997
0.116343	0.0695143	0.00184957	0.116343	3.85686	0.0655243	0.116119	0.815111	0.0385712	0.114949	1.50381	0.0187045	0.116119	0.794756	0.0135415	0.116119	0.464621	0.0103538
0.117736	0.0641921	0.00180927	0.117736	3.56183	0.0637297	0.117496	0.752941	0.0382262	0.116343	1.40184	0.0178525	0.117496	0.773722	0.0133241	0.117496	0.471333	0.0103994
0.11913	0.0573856	0.00178433	0.11913	3.19265	0.0620409	0.118872	0.680714	0.0387616	0.117736	1.31967	0.0172779	0.118872	0.7843563	0.0133333	0.118872	0.517616	0.0108314
0.120523	0.0568557	0.00175836	0.120523	3.25942	0.061284	0.120248	0.760635	0.0380088	0.11913	1.23995	0.0166418	0.120248	0.7822833	0.0132428	0.120248	0.47704	0.0103413
0.121917	0.0553424	0.00175588	0.121917	3.22018	0.060971	0.121624	0.782953	0.0382469	0.120523	1.23472	0.0165176	0.121624	0.8008218	0.0133369	0.121624	0.4866885	0.0103971
0.123311	0.0538068	0.00172458	0.123311	3.04502	0.0598129	0.123001	0.684367	0.0376559	0.121917	1.229129	0.0164051	0.123001	0.765491	0.0129826	0.123001	0.495163	0.0104416
0.124704	0.0553464	0.00170698	0.124704	3.09836	0.0594922	0.124377	0.673686	0.0369001	0.123311	1.18308	0.0160257	0.124377	0.742359	0.0127351	0.124377	0.474897	0.0101858
0.126098	0.0526076	0.00170925	0.126098	3.04144	0.0591986	0.125753	0.645023	0.0373878	0.124704	1.18631	0.0159848	0.125753	0.7574453	0.0128167	0.125753	0.505188	0.0104671
0.127491	0.0522	0.00169091	0.127491	3.06873	0.0586511	0.12713	0.81524	0.0374581	0.126098	1.17801	0.0158699	0.12713	0.7996611	0.0131229	0.12713	0.469942	0.01006
0.128885	0.0517586	0.00170171	0.128885	2.99369	0.0587832	0.128506	0.751389	0.036853	0.127491	1.170881	0.0157666	0.128506	0.7696228	0.0128306	0.128506	0.467578	0.0100008
0.130279	0.055953	0.00168499	0.130279	3.26058	0.0589085	0.129882	0.619651	0.0366954	0.128885	1.17203	0.0157211	0.129882	0.740738	0.0125462	0.129882	0.4990134	0.0102976
0.131672	0.0578873	0.00170206	0.131672	3.36055	0.0595573	0.131259	0.74241	0.0363107	0.130279	1.21111	0.0159282	0.131259	0.7568745	0.012642	0.131259	0.457891	0.00983296
0.133066	0.0581847	0.00170039	0.133066	3.41057	0.0595295	0.132635	0.834065	0.0368028	0.131672	1.24726	0.0161123	0.132635	0.7967963	0.0129306	0.132635	0.4577764	0.00980105
0.134459	0.060586	0.00169243	0.134459	3.39676	0.0594955	0.134011	0.884427	0.0364155	0.133066	1.2575	0.0161277	0.134011	0.7974	0.012897	0.134011	0.4343034	0.00951805
0.135853	0.0622531	0.00170287	0.135853	3.45097	0.0599074	0.135388	0.700469	0.0357359	0.134459	1.26028	0.0160965	0.135388	0.739159	0.0123798	0.135388	0.4585503	0.00975074
0.137246	0.0665931	0.00177221	0.137246	3.66697	0.0626557	0.136764	0.735296	0.0358114	0.135853	1.28453	0.0162004	0.136764	0.742197	0.0124776	0.136764	0.445193	0.00966378
0.13864	0.0641147	0.00180468	0.13864	3.5568	0.0636335	0.13814	0.692373	0.0374899	0.137246	1.34005	0.0170219	0.13814	0.7446975	0.0129852	0.13814	0.4685075	0.0102995
0.140034	0.0710047	0.00185781	0.140034	3.78404	0.0662034	0.139516	0.721379	0.0384232	0.13864	1.3101	0.0172684	0.139516	0.7550247	0.0133664	0.139516	0.46594	0.0105003
# 0.141427	0.070195	0.00187587	0.141427	3.79808	0.066724	0.140893	0.698652	0.038541	0.140034	1.3745	0.0180427	0.140893	0.7411403	0.0133882	0.140893	0.461595	0.0105658
# 0.142821	0.0723027	0.00191409	0.142821	3.8081	0.0680865	0.142269	0.669648	0.0386111	0.141427	1.37865	0.0181919	0.142269	0.727508	0.0133762	0.142269	0.4605351	0.0106426
# 0.144214	0.0726098	0.00193304	0.144214	3.82894	0.0688084	0.143645	0.731807	0.0394933	0.142821	1.40203	0.0185153	0.143645	0.7579849	0.0137719	0.143645	0.464191	0.0107774
# 0.145608	0.0705732	0.00192868	0.145608	3.709	0.0686333	0.145022	0.699996	0.0397211	0.144214	1.40556	0.0187275	0.145022	0.7445917	0.0138099	0.145022	0.464738	0.0109103
# 0.147002	0.0732501	0.00194354	0.147002	3.77558	0.0695554	0.146398	0.75837	0.04038	0.145608	1.36468	0.0186688	0.146398	0.763927	0.0141435	0.146398	0.457982	0.0109511
# 0.148395	0.0704831	0.00195425	0.148395	3.81032	0.0697785	0.147774	0.616477	0.0401337	0.147002	1.37731	0.0189611	0.147774	0.714504	0.0138232	0.147774	0.471746	0.0112321
# 0.149789	0.0719252	0.0019676	0.149789	3.67248	0.0703635	0.149151	0.556939	0.0396335	0.148395	1.36768	0.019092	0.149151	0.675964	0.0135815	0.149151	0.457985	0.0111792
# 0.151182	0.0703666	0.00197322	0.151182	3.76194	0.0705061	0.150527	0.604875	0.0398492	0.149789	1.34962	0.0191551	0.150527	0.683851	0.0137638	0.150527	0.443668	0.0110863
# 0.152576	0.0717247	0.00196943	0.152576	3.66048	0.0706109	0.151903	0.67529	0.0404609	0.151182	1.35513	0.0192803	0.151903	0.7122432	0.0140959	0.151903	0.4410794	0.0110927
# 0.153969	0.0668978	0.00196992	0.153969	3.66222	0.070281	0.15328	0.701039	0.0403401	0.152576	1.33439	0.019258	0.15328	0.7042952	0.0141414	0.15328	0.4200177	0.0109206
# 0.155363	0.0626199	0.00198024	0.155363	3.41809	0.0700359	0.154656	0.615596	0.0403163	0.153969	1.30969	0.0192477	0.154656	0.6763173	0.013979	0.154656	0.430262	0.0111498
# 0.156757	0.0639731	0.0020059	0.156757	3.56567	0.0711372	0.156032	0.747976	0.0418257	0.155363	1.2604	0.0190485	0.156032	0.73677	0.0147161	0.156032	0.4331611	0.0112837
# 0.15815	0.0604105	0.00200544	0.15815	3.37044	0.0707041	0.157409	0.745131	0.0416368	0.156757	1.28992	0.0194366	0.157409	0.721314	0.0146843	0.157409	0.417563	0.0111725
# 0.159544	0.0587315	0.00215992	0.159544	3.2672	0.0759016	0.158785	0.663087	0.0438561	0.15815	1.24331	0.0192319	0.158785	0.730638	0.015238	0.158785	0.467113	0.012184
# 0.160937	0.0551872	0.00219262	0.160937	3.07938	0.0770804	0.160161	0.670287	0.0466603	0.159544	1.22635	0.0206042	0.160161	0.7200047	0.0162936	0.160161	0.4519942	0.0129097
# 0.162331	0.0539048	0.00232922	0.162331	3.0625	0.0812799	0.161537	0.693794	0.049101	0.160937	1.15039	0.020946	0.161537	0.7371638	0.0171897	0.161537	0.459559	0.0135724
# 0.163724	0.0499636	0.00235832	0.163724	2.92384	0.0821209	0.162914	0.727032	0.0507542	0.162331	1.16829	0.0220118	0.162914	0.7374547	0.0178879	0.162914	0.44395	0.013879
# 0.165118	0.0487657	0.00247277	0.165118	2.89076	0.0856479	0.16429	0.695418	0.0519957	0.163724	1.107783	0.0222727	0.16429	0.7168028	0.0183009	0.16429	0.436437	0.0142802
# 0.166512	0.0466238	0.00249799	0.166512	2.65424	0.0864474	0.165666	0.732228	0.0544889	0.165118	1.11369	0.0231654	0.165666	0.738169	0.0192496	0.165666	0.442244	0.0148996
# 0.167905	0.0466814	0.00254173	0.167905	2.65789	0.0883873	0.167043	0.770444	0.055653	0.166512	1.04635	0.023276	0.167043	0.7303522	0.0198371	0.167043	0.415351	0.0149596
# 0.169299	0.0427103	0.00264726	0.169299	2.66742	0.0912644	0.168419	0.654322	0.0579938	0.167905	1.026867	0.0239009	0.168419	0.7134196	0.0203159	0.168419	0.452419	0.0161783
# 0.170692	0.04129	0.00275428	0.170692	2.45634	0.0943391	0.169795	0.692933	0.0597916	0.169299	1.02235	0.0247301	0.169795	0.7157526	0.0210969	0.169795	0.436476	0.0164747
# 0.172086	0.0385533	0.00276379	0.172086	2.23641	0.0945814	0.171172	0.503192	0.0630002	0.170692	0.993846	0.0253046	0.171172	0.694764	0.021568	0.171172	0.504373	0.0183766
# 0.17348	0.0328503	0.00285866	0.17348	2.13943	0.0966321	0.172548	0.77019	0.0650763	0.172086	0.9192838	0.0252936	0.172548	0.744148	0.0231918	0.172548	0.430612	0.017642
# 0.174873	0.0301762	0.00295055	0.174873	2.20194	0.0994455	0.173924	0.740395	0.0654718	0.17348	0.883741	0.0258257	0.173924	0.700381	0.0234139	0.173924	0.396862	0.0176248
# 0.176267	0.0323342	0.00305342	0.176267	2.12739	0.103264	0.175301	0.687026	0.0692001	0.174873	0.876069	0.0267747	0.175301	0.705102	0.0244915	0.175301	0.427618	0.019073
# 0.17766	0.038848	0.00319464	0.17766	2.55692	0.109949	0.176677	0.75341	0.071215	0.176267	0.8688947	0.0276633	0.176677	0.7163133	0.0254732	0.176677	0.408108	0.0192274
# 0.179054	0.0277781	0.00314623	0.179054	1.89779	0.105822	0.178053	0.742332	0.072293	0.17766	0.96377	0.0299507	0.178053	0.699404	0.025901	0.178053	0.394861	0.0194615
# 0.180447	0.0190957	0.00328953	0.180447	1.39319	0.107293	0.179429	0.56952	0.0792259	0.179054	0.790015	0.028276	0.179429	0.7156488	0.0274382	0.179429	0.495505	0.0228313
# 0.181841	0.00959551	0.00326818	0.181841	1.25539	0.103459	0.180806	0.653737	0.0775391	0.180447	0.6938737	0.0278622	0.180806	0.654581	0.0275812	0.180806	0.388131	0.0212383
# #0.183235	-0.00506336	0.00315786	0.183235	0.572699	0.0935139	0.182182	0.760134	0.0825386	0.181841	0.6009185	0.0268933	0.182182	0.710707	0.029641	0.182182	0.398733	0.0222019
# #0.184628	-0.0115043	0.00296152	0.184628	0.274846	0.0837055	0.183558	0.705252	0.0858034	0.183235	0.4167027	0.0230696	0.183558	0.709763	0.0305111	0.183558	0.423999	0.0235822
# #0.186022	-0.0254773	0.00289866	0.186022	-0.152537	0.0724167	0.184935	0.683031	0.0838123	0.184628	0.294564	0.0200055	0.184935	0.6477288	0.0300608	0.184935	0.3665724	0.0226143
# #0.187415	-0.0179322	0.00314048	0.187415	0.120027	0.0849245	0.186311	0.830796	0.0889237	0.186022	0.165769	0.0155012	0.186311	0.706554	0.0324261	0.186311	0.3603121	0.0231559
# #0.188809	-0.0204568	0.00320587	0.188809	-0.18549	0.0837948	0.187687	0.788434	0.0918377	0.187415	0.250896	0.0197296	0.187687	0.6961538	0.0332992	0.187687	0.369201	0.02425
# #0.190203	-0.0192646	0.00325212	0.190203	-0.266496	0.0847121	0.189064	0.61064	0.0958406	0.188809	0.1937751	0.0179732	0.189064	0.6666259	0.0337752	0.189064	0.422002	0.0268729
# #0.191596	-0.0119966	0.00328214	0.191596	-0.414071	0.0884607	0.19044	0.492807	0.0974271	0.190203	0.1731938	0.0176514	0.19044	0.6198069	0.033826	0.19044	0.427093	0.0280791
# #0.19299	-0.00767819	0.00319408	0.19299	-0.107354	0.0890142	0.191816	0.0846386	0.0961979	0.191596	0.157952	0.0175553	0.191816	0.483242	0.0311039	0.191816	0.472837	0.0307672
# #0.194383	-0.00510852	0.00304258	0.194383	-0.120522	0.0853034	0.193193	0.195397	0.0913947	0.19299	0.177568	0.0194406	0.193193	0.42696	0.030536	0.193193	0.357995	0.0279613
# #0.195777	-0.0037994	0.00316035	0.195777	-0.0292669	0.0900273	0.194569	0.0860259	0.0866575	0.194383	0.144181	0.0183618	0.194569	0.335088	0.0283548	0.194569	0.30959	0.0272546
# #0.19717	0.000268575	0.00340383	0.19717	0.073466	0.101045	0.195945	0.118056	0.0888729	0.195777	0.155502	0.0200751	0.195945	0.3261297	0.0294461	0.195945	0.28441	0.0274983
# #0.198564	0.00303726	0.00395163	0.198564	-0.257387	0.117713	0.197322	0.0556075	0.0922698	0.19717	0.1878866	0.0233482	0.197322	0.302359	0.0299986	0.197322	0.288251	0.0292904
# #0.199958	0.00332308	0.00393817	0.199958	0.0401228	0.119414	0.198698	-0.345881	0.106762	0.198564	0.1872128	0.0248231	0.198698	0.270505	0.0302176	0.198698	0.4457032	0.0387878
# #0.201351	-0.00587032	0.00385953	0.201351	-0.190518	0.105227	0.200074	-0.0902449	0.104505	0.199958	0.197048	0.0273498	0.200074	0.266907	0.0322377	0.200074	0.3192446	0.035257
# #0.202745	-0.00676967	0.00455357	0.202745	0.0216851	0.126546	0.20145	0.0522548	0.112224	0.201351	0.103868	0.021559	0.20145	0.290703	0.0365296	0.20145	0.2770675	0.0356626
# #0.204138	-0.0150034	0.00527074	0.204138	0.0284866	0.135986	0.202827	0.276483	0.130571	0.202745	0.152626	0.0288195	0.202827	0.368771	0.0453587	0.202827	0.25528	0.037739
# #0.205532	-0.009704	0.00582417	0.205532	-0.346239	0.1515	0.204203	0.595227	0.158806	0.204138	0.139376	0.0310567	0.204203	0.485209	0.0586665	0.204203	0.230305	0.0404182
# #0.206925	-0.0118875	0.00713752	0.206925	0.140204	0.187312	0.205579	0.0583433	0.174627	0.205532	0.08427983	0.0282528	0.205579	0.332112	0.0568003	0.205579	0.319592	0.0557191
# #0.208319	-0.0002999	0.00994828	0.208319	-0.317672	0.28247	0.206956	0.576978	0.212849	0.206925	0.135321	0.0449668	0.206956	0.422397	0.0804129	0.206956	0.170121	0.0510323
# #0.209016	0.00611245	0.0159482	0.209016	-0.30461	0.488917	0.207644	0.376501	0.22578	0.207622	0.126954	0.0515879	0.207644	0.3219775	0.0832143	0.207644	0.1559977	0.057922

#SSDD Data
#q / A-1	I / cm-1	sI / cm-1	q_sample / A-1	I_sample / cm-1	sI_sample / cm-1	q_solvent / A-1	I_solvent / cm-1	sI_solvent / cm-1	q_raw_sample / A-1	I_raw_sample / a.u.	sI_raw_sample / a.u.	q_raw_solvent / A-1	I_raw_solvent / a.u.	sI_raw_solvent / a.u.	q_raw_ec / A-1	I_raw_ec / a.u.	sI_raw_ec / a.u.
#0.0128006	-0.019409	0.00144282	0.0128006	0.260548	0.0231136	0.0234492	0.970381	0.0507244	0.00142229	16.93385	0.780059	0.0234492	14.9261	0.538964	0.0234492	3.88613	0.275008
# 0.0184898	1.28035	0.00224072	0.0184898	55.3604	0.0762632	0.0289912	0.888608	0.0237171	0.00711147	16.8917	0.351302	0.0289912	13.8871	0.250868	0.0289912	3.79744	0.131185
# 0.024179	7.97568	0.00438642	0.024179	339.19	0.177118	0.0345333	0.848241	0.0201014	0.0128006	17.1597	0.263917	0.0345333	13.41885	0.211907	0.0345333	3.802653	0.112806
# 0.0298682	8.55438	0.0040954	0.0298682	363.631	0.171582	0.0400754	0.813041	0.0159069	0.0184898	1676.24	2.20416	0.0400754	13.0765	0.166934	0.0400754	3.87956	0.0909266
# 0.0355573	8.17794	0.00365413	0.0355573	347.628	0.153273	0.0456175	0.791967	0.0127052	0.024179	10222.443	5.29405	0.0456175	12.6609	0.133539	0.0456175	3.69451	0.0721361
# 0.0412465	8.74589	0.00327034	0.0412465	371.665	0.137495	0.0511596	0.782405	0.0116469	0.0298682	10958.17	5.15725	0.0511596	12.58471	0.12221	0.0511596	3.733873	0.0665677
# 0.0469357	7.66164	0.0028053	0.0469357	325.678	0.118074	0.0567017	0.769919	0.0109432	0.0355573	10476.323	4.60753	0.0567017	12.4871	0.114569	0.0567017	3.78737	0.0630966
# 0.0526249	6.39845	0.00239355	0.0526249	272.109	0.100682	0.0622438	0.771061	0.0103693	0.0412465	11200.272	4.13454	0.0622438	12.4825	0.10861	0.0622438	3.767553	0.0596691
# 0.0583141	5.2424	0.00204536	0.0583141	223.054	0.0859002	0.0677858	0.749907	0.00983485	0.0469357	9815.15	3.55122	0.0677858	12.28145	0.102697	0.0677858	3.818983	0.0572672
# 0.0640032	4.17131	0.00173656	0.0640032	177.68	0.0727541	0.0733279	0.74476	0.00944346	0.0526249	8202.401	3.02773	0.0733279	12.2971	0.0983993	0.0733279	3.90232	0.0554309
# 0.0696924	3.2124	0.00146065	0.0696924	137.015	0.0609823	0.07887	0.733855	0.00907924	0.0583141	6725.629	2.58234	0.07887	12.2443	0.0943501	0.07887	3.98465	0.0538233
# 0.0753816	2.39972	0.00121826	0.0753816	102.558	0.0506	0.0844121	0.726225	0.00878509	0.0640032	5358.99	2.18642	0.0844121	12.16034	0.0912087	0.0844121	3.990597	0.0522495
# 0.0810708	1.72258	0.00100354	0.0810708	73.87	0.0413521	0.0899542	0.737545	0.00866351	0.0696924	4134.76	1.83148	0.0899542	12.2409	0.0901461	0.0899542	3.93347	0.0511008
# 0.0867599	1.1604	0.000810013	0.0867599	50.0085	0.0329221	0.0954963	0.731122	0.00845526	0.0753816	3097.47	1.51822	0.0954963	12.2466	0.0877726	0.0954963	4.0223	0.0503024
# 0.0924491	0.758061	0.000653031	0.0924491	32.9423	0.0259809	0.101038	0.737102	0.00816219	0.0810708	2233.605	1.23908	0.101038	12.1885	0.0850038	0.101038	3.88167	0.0479702
# 0.0981383	0.475927	0.000525788	0.0981383	20.9986	0.0202673	0.10658	0.724067	0.0079368	0.0867599	1515.19	0.983865	0.10658	12.1612	0.0823288	0.10658	4.01933	0.0473304
0.103827	0.285343	0.000426094	0.103827	12.918	0.0156641	0.112123	0.726388	0.00768512	0.0924491	1001.61	0.773022	0.112123	12.18521	0.079739	0.112123	4.01579	0.0457762
0.109517	0.164019	0.00035244	0.109517	7.77153	0.0121205	0.117665	0.712211	0.00759937	0.0981383	641.7013	0.599331	0.117665	11.9982	0.0787653	0.117665	3.99285	0.045438
0.115206	0.0947521	0.000309452	0.115206	4.82952	0.00988928	0.123207	0.72879	0.00730601	0.103827	398.3841	0.458285	0.123207	12.1455	0.0759249	0.123207	3.941383	0.0432514
0.120895	0.0595509	0.000279349	0.120895	3.34024	0.00838163	0.128749	0.714508	0.00711194	0.109517	243.5622	0.348339	0.128749	12.0564	0.0736759	0.128749	4.027209	0.0425813
0.126584	0.0486284	0.000262489	0.126584	2.88538	0.00765741	0.134291	0.720213	0.00693233	0.115206	154.982	0.277636	0.134291	12.0997	0.0718901	0.134291	4.001392	0.0413415
0.132273	0.0514451	0.000256826	0.132273	2.9809	0.00755971	0.139833	0.715931	0.00676266	0.120895	110.057	0.229897	0.139833	12.057	0.0700853	0.139833	4.009521	0.0404161
0.137963	0.0597199	0.000255156	0.137963	3.33411	0.00767303	0.145375	0.709756	0.00658995	0.126584	96.24098	0.207826	0.145375	11.9616	0.0682802	0.145375	3.984284	0.0394072
0.143652	0.0689326	0.000254522	0.143652	3.71691	0.00781893	0.150917	0.724023	0.0064857	0.132273	99.38066	0.205231	0.150917	12.1182	0.0673133	0.150917	3.97263	0.0385408
0.149341	0.0754234	0.000252878	0.149341	3.99205	0.00786933	0.156459	0.713115	0.00632347	0.137963	109.876	0.210448	0.156459	11.96794	0.0655821	0.156459	3.94805	0.0376675
0.15503	0.0774651	0.000248677	0.15503	4.07597	0.00777094	0.162001	0.705978	0.00620009	0.143652	121.416	0.216166	0.162001	11.9154	0.0642095	0.162001	3.98221	0.0371199
0.160719	0.0751542	0.000241414	0.160719	3.97411	0.00753825	0.167543	0.711525	0.00611316	0.149341	129.7092	0.218632	0.167543	12.0116	0.0633037	0.167543	4.016461	0.0366058
0.166408	0.0688969	0.000234231	0.166408	3.71504	0.00721243	0.173085	0.713066	0.00621249	0.15503	132.215	0.216225	0.173085	11.9605	0.0644376	0.173085	3.940523	0.0369863
0.172098	0.0603788	0.000232883	0.172098	3.35566	0.0070258	0.178628	0.706064	0.00623968	0.160719	129.2013	0.209582	0.178628	11.9297	0.0646031	0.178628	3.99676	0.0373932
0.177787	0.0510635	0.000228751	0.177787	2.95295	0.00674625	0.18417	0.708509	0.0062347	0.166408	121.481	0.199437	0.18417	11.9578	0.064569	0.18417	3.996143	0.0373267
0.183476	0.0405619	0.000222366	0.183476	2.51049	0.00635713	0.189712	0.6991	0.00595934	0.172098	110.482	0.192905	0.189712	11.8789	0.0616087	0.189712	4.03053	0.0358869
0.189165	0.0316794	0.000207691	0.189165	2.12344	0.00576678	0.195254	0.697486	0.00580152	0.177787	98.48783	0.183183	0.195254	11.8377	0.0599905	0.195254	4.006132	0.0348988
0.194854	0.0241738	0.000197781	0.194854	1.80346	0.00532431	0.200796	0.690992	0.00569801	0.183476	85.1639	0.170178	0.200796	11.8298	0.0587927	0.200796	4.08096	0.0345315
0.200543	0.0184539	0.000190922	0.200543	1.55373	0.00500403	0.206338	0.697889	0.00555725	0.189165	73.59005	0.15182	0.206338	11.7972	0.057515	0.206338	3.9565	0.0333079
0.206233	0.0144028	0.000183816	0.206233	1.38969	0.00471484	0.21188	0.688764	0.00546134	0.194854	63.8982	0.137781	0.21188	11.7457	0.0563981	0.21188	4.01731	0.0329832
0.211922	0.012204	0.000179438	0.211922	1.2863	0.0045485	0.217422	0.691174	0.00538936	0.200543	56.554	0.126981	0.217422	11.7883	0.0556508	0.217422	4.03308	0.032551
0.217611	0.0108399	0.000176262	0.217611	1.23116	0.00443079	0.222964	0.693462	0.00535431	0.206233	51.32346	0.118454	0.222964	11.7793	0.055343	0.222964	3.99375	0.032225
0.2233	0.0106617	0.000175079	0.2233	1.22616	0.00439939	0.228506	0.704018	0.00545903	0.211922	48.3525	0.112926	0.228506	11.8567	0.0565476	0.228506	3.94296	0.0326094
0.228989	0.0106997	0.000178381	0.228989	1.23955	0.0044767	0.234048	0.677582	0.00551265	0.217611	46.72912	0.109313	0.234048	11.8219	0.0566185	0.234048	4.244693	0.0339264
0.234679	0.0114804	0.000180802	0.234679	1.24313	0.00456835	0.23959	0.683152	0.00541456	0.2233	46.4866	0.108691	0.23959	11.73353	0.0558169	0.23959	4.076105	0.0328984
0.240368	0.0120392	0.000177551	0.240368	1.27304	0.0044847	0.245133	0.688949	0.00523407	0.228989	46.7709	0.110901	0.245133	11.7745	0.0540158	0.245133	4.04649	0.0316657
0.246057	0.011838	0.000171617	0.246057	1.27099	0.0043341	0.250675	0.692224	0.00511589	0.234679	47.5853	0.112117	0.250675	11.74835	0.0528824	0.250675	3.97572	0.0307631
0.251746	0.0114652	0.000167502	0.251746	1.25884	0.00421913	0.256217	0.692704	0.00502538	0.240368	48.0911	0.110727	0.256217	11.7563	0.051944	0.256217	3.978252	0.0302167
0.257435	0.0107666	0.000164191	0.257435	1.22976	0.00411965	0.261759	0.679393	0.00494481	0.246057	47.9598	0.107204	0.261759	11.6563	0.0509736	0.261759	4.03965	0.030008
0.263124	0.0101541	0.000161343	0.263124	1.18893	0.00403811	0.267301	0.685103	0.00489467	0.251746	47.42836	0.104451	0.267301	11.7101	0.0505009	0.267301	4.02535	0.0296087
0.268814	0.00902329	0.000158425	0.268814	1.14522	0.00394712	0.272843	0.681775	0.00482007	0.257435	46.5586	0.101689	0.272843	11.6451	0.0497371	0.272843	3.99673	0.0291382
0.274503	0.00779501	0.000155407	0.274503	1.09567	0.0038399	0.278385	0.677151	0.00476562	0.263124	45.4732	0.0990276	0.278385	11.633	0.0491046	0.278385	4.04295	0.0289485
0.280192	0.00696865	0.000153114	0.280192	1.05107	0.00376545	0.283927	0.689731	0.00471072	0.268814	44.1701	0.0965025	0.283927	11.7089	0.0486775	0.283927	3.96448	0.0283246
0.285881	0.00616834	0.000150813	0.285881	1.0146	0.00368922	0.289469	0.682291	0.00466741	0.274503	42.54721	0.0934818	0.289469	11.7026	0.0481073	0.289469	4.05325	0.0283121
0.29157	0.00519219	0.000148881	0.29157	0.983047	0.00361434	0.295011	0.68011	0.00462087	0.280192	41.32507	0.090982	0.295011	11.708	0.0475838	0.295011	4.087164	0.0281144
0.297259	0.00471708	0.00014698	0.297259	0.956762	0.00355787	0.300553	0.679473	0.0045589	0.285881	40.2298	0.0886908	0.300553	11.6606	0.0469785	0.300553	4.04342	0.0276639
0.302949	0.00448919	0.000145125	0.302949	0.944434	0.00350743	0.306095	0.672225	0.00450812	0.29157	39.22821	0.0865633	0.306095	11.6102	0.0463819	0.306095	4.081265	0.0274996
0.308638	0.00440268	0.000144447	0.308638	0.919233	0.00349728	0.311638	0.664606	0.00447471	0.297259	38.504	0.084792	0.311638	11.6128	0.04591	0.311638	4.18215	0.027551
0.314327	0.00422915	0.000142298	0.314327	0.923528	0.00343574	0.31718	0.678178	0.00440575	0.302949	38.1157	0.0834473	0.31718	11.6006	0.0454297	0.31718	3.99425	0.0266573
0.320016	0.00400998	0.000140891	0.320016	0.928356	0.00339178	0.322722	0.672029	0.00435549	0.308638	37.8608	0.0822739	0.322722	11.5416	0.0448658	0.322722	4.00857	0.0264409
0.325705	0.00430774	0.000138991	0.325705	0.934938	0.00335332	0.328264	0.677876	0.00433161	0.314327	37.68341	0.0812256	0.328264	11.6388	0.0446216	0.328264	4.03997	0.0262894
0.331394	0.00424561	0.000137593	0.331394	0.931744	0.00331777	0.333806	0.678572	0.00429661	0.320016	37.6863	0.0804023	0.333806	11.6632	0.044248	0.333806	4.057785	0.0260994
0.337084	0.00416932	0.000136722	0.337084	0.932666	0.00329429	0.339348	0.66934	0.00425305	0.325705	37.7715	0.079692	0.339348	11.5953	0.0437151	0.339348	4.10201	0.026001
0.342773	0.00411743	0.000135114	0.342773	0.926823	0.00325448	0.34489	0.668028	0.00419592	0.331394	37.6687	0.0788055	0.34489	11.5187	0.0431734	0.34489	4.03488	0.0255523
0.348462	0.00381466	0.000133996	0.348462	0.921599	0.0032184	0.350432	0.677108	0.00417476	0.337084	37.7726	0.0781608	0.350432	11.6299	0.0429947	0.350432	4.04013	0.025341
0.354151	0.00352606	0.000133076	0.354151	0.910761	0.00319181	0.355974	0.679515	0.00417871	0.342773	37.5458	0.0771971	0.355974	11.6434	0.0430604	0.355974	4.02394	0.0253142
0.35984	0.00341432	0.000134195	0.35984	0.896774	0.00322006	0.361516	0.670441	0.00420813	0.348462	37.3625	0.0763005	0.361516	11.5327	0.0433245	0.361516	4.01919	0.0255763
0.36553	0.00327307	0.000135106	0.36553	0.894398	0.00323626	0.367058	0.678125	0.00423562	0.354151	37.1218	0.0754831	0.367058	11.6206	0.0436487	0.367058	4.016856	0.0256626
0.371219	0.00320318	0.000135583	0.371219	0.87789	0.00324061	0.372601	0.664724	0.00425205	0.35984	36.6583	0.076088	0.372601	11.4965	0.043722	0.372601	4.05293	0.0259599
0.376908	0.00285478	0.000139711	0.376908	0.872847	0.00333113	0.378143	0.673436	0.00438651	0.36553	36.5958	0.0763986	0.378143	11.601	0.0451536	0.378143	4.055584	0.0266976
0.382597	0.00269468	0.000141773	0.382597	0.861489	0.00338048	0.383685	0.669341	0.00445108	0.371219	36.1387	0.076065	0.383685	11.587	0.0457676	0.383685	4.092853	0.0272011
0.388286	0.00273961	0.000142512	0.388286	0.863347	0.00339888	0.389227	0.669299	0.00447383	0.376908	35.9931	0.0781807	0.389227	11.5102	0.0460752	0.389227	4.00921	0.0271928
0.393975	0.00233274	0.000144015	0.393975	0.855273	0.00342472	0.394769	0.677517	0.00452709	0.382597	35.7383	0.0791439	0.394769	11.6583	0.0466192	0.394769	4.066026	0.0275316
0.399665	0.00258411	0.000144349	0.399665	0.854209	0.00344233	0.400311	0.66702	0.00453174	0.388286	35.5984	0.0798704	0.400311	11.5609	0.0465869	0.400311	4.09407	0.0277234
0.405354	0.00227804	0.000145345	0.405354	0.852525	0.00345519	0.405853	0.677133	0.00456961	0.393975	35.4883	0.0802341	0.405853	11.6558	0.0470549	0.405853	4.06822	0.0277994
0.411043	0.00250207	0.000145848	0.411043	0.854057	0.00347491	0.411395	0.669999	0.00458073	0.399665	35.522	0.0805547	0.411395	11.5698	0.0471339	0.411395	4.06562	0.0279404
0.416732	0.00256651	0.000147018	0.416732	0.859959	0.00350468	0.416937	0.672838	0.0046163	0.405354	35.41071	0.0809092	0.416937	11.6314	0.0474889	0.416937	4.09671	0.0281834
0.422421	0.00260313	0.000146933	0.422421	0.851699	0.00350632	0.422479	0.664049	0.0046114	0.411043	35.45078	0.0814074	0.422479	11.5393	0.0473799	0.422479	4.10857	0.0282716
0.42811	0.00230268	0.000150908	0.42811	0.856827	0.00358878	0.428021	0.680051	0.00474371	0.416732	35.7013	0.0821022	0.428021	11.6792	0.0488816	0.428021	4.056405	0.0288077
0.4338	0.00244196	0.000154892	0.4338	0.851606	0.0036902	0.433563	0.670085	0.00486489	0.422421	35.4803	0.0819992	0.433563	11.5492	0.050092	0.433563	4.0419	0.0296336
0.439489	0.00221872	0.000159129	0.439489	0.846443	0.00378636	0.439106	0.673938	0.00500087	0.42811	35.5126	0.0841815	0.439106	11.6624	0.0514472	0.439106	4.11652	0.0305656
0.445178	0.00198	0.000156453	0.445178	0.845166	0.00370752	0.444648	0.681858	0.00492596	0.4338	35.3214	0.0865515	0.444648	11.7042	0.0507727	0.444648	4.060533	0.0299055
0.450867	0.00221186	0.00015466	0.450867	0.850572	0.00367399	0.45019	0.677896	0.00486408	0.439489	35.3407	0.0885177	0.45019	11.648	0.0501205	0.45019	4.04982	0.0295534
0.456556	0.0021177	0.00015426	0.456556	0.849397	0.00366243	0.455732	0.68042	0.00485275	0.445178	35.1711	0.0867097	0.455732	11.6771	0.050018	0.455732	4.04937	0.0294545
0.462246	0.00222413	0.000154381	0.462246	0.850611	0.0036688	0.461274	0.677465	0.00485443	0.450867	35.3088	0.0860756	0.461274	11.6524	0.0500085	0.461274	4.06023	0.0295196
0.467935	0.00224698	0.000154094	0.467935	0.844247	0.00366481	0.466816	0.670897	0.00484372	0.456556	35.2724	0.0858144	0.466816	11.5872	0.0498484	0.466816	4.0731	0.0295546
0.473624	0.00220682	0.000154508	0.473624	0.8504	0.00367201	0.472358	0.677934	0.00485832	0.462246	35.3344	0.0859382	0.472358	11.6724	0.0500363	0.472358	4.07616	0.0295686
0.479313	0.00217144	0.000154772	0.479313	0.850444	0.00367695	0.4779	0.68971	0.00488403	0.467935	35.1729	0.0857176	0.4779	11.8131	0.0503654	0.4779	4.07914	0.0295961
0.485002	0.00207004	0.000155322	0.485002	0.855505	0.00368521	0.483442	0.682455	0.00486486	0.473624	35.3654	0.0859702	0.483442	11.7041	0.0501514	0.483442	4.05278	0.0295114
0.490691	0.00208123	0.000155028	0.490691	0.852693	0.00367849	0.488984	0.679468	0.00488217	0.479313	35.3946	0.0860435	0.488984	11.7338	0.0502467	0.488984	4.123807	0.0297877
0.496381	0.00182673	0.000156036	0.496381	0.854344	0.00369398	0.494526	0.687043	0.00489647	0.485002	35.5591	0.086294	0.494526	11.8106	0.0504495	0.494526	4.11066	0.029763
0.50207	0.00212782	0.000155982	0.50207	0.856395	0.00370398	0.500068	0.689101	0.00490408	0.490691	35.4096	0.0861783	0.500068	11.8365	0.0505379	0.500068	4.1126	0.0297895
0.507759	0.00223782	0.000156225	0.507759	0.855249	0.00371514	0.505611	0.687885	0.00490916	0.496381	35.5694	0.0864246	0.505611	11.83543	0.05057	0.505611	4.12706	0.0298622
0.513448	0.00253869	0.00015591	0.513448	0.866878	0.00371525	0.511153	0.688141	0.00491386	0.50207	35.68243	0.086624	0.511153	11.841	0.0506174	0.511153	4.129853	0.0298933
0.519137	0.0022063	0.000155956	0.519137	0.864349	0.00370488	0.516695	0.687862	0.00491537	0.507759	35.73709	0.0867557	0.516695	11.8685	0.0505998	0.516695	4.16369	0.0299702
0.524826	0.00239591	0.000155956	0.524826	0.86239	0.0037146	0.522237	0.689351	0.00490887	0.513448	35.9721	0.0870823	0.522237	11.9041	0.0505226	0.522237	4.183527	0.0299509
0.530516	0.00220932	0.000155657	0.530516	0.872344	0.00369662	0.527779	0.684091	0.00489318	0.519137	35.92249	0.0867675	0.527779	11.87063	0.0503024	0.527779	4.21448	0.0299726
0.536205	0.00216569	0.000155797	0.536205	0.879605	0.00369719	0.533321	0.696606	0.00488959	0.524826	36.0802	0.0866898	0.533321	11.9779	0.0503752	0.533321	4.17123	0.0297275
0.541894	0.00230773	0.000155038	0.541894	0.886926	0.00368134	0.538863	0.697537	0.00488101	0.530516	36.22579	0.0866026	0.538863	12.0012	0.0502791	0.538863	4.18484	0.0296903
0.547583	0.00264749	0.00015461	0.547583	0.883478	0.003686	0.544405	0.695906	0.00485466	0.536205	36.49308	0.0866535	0.544405	11.9536	0.0500264	0.544405	4.15364	0.0294892
0.553272	0.00244715	0.000154875	0.553272	0.881993	0.00368647	0.549947	0.69577	0.00485496	0.541894	36.60425	0.0865189	0.549947	12.0014	0.0499791	0.549947	4.20785	0.0295939
0.558962	0.00244102	0.00015381	0.558962	0.88683	0.00365834	0.555489	0.704922	0.00486432	0.547583	36.68148	0.0863476	0.555489	12.1575	0.0500773	0.555489	4.261412	0.029648
0.564651	0.00235955	0.00015366	0.564651	0.886073	0.00365397	0.561031	0.710722	0.00484642	0.553272	36.7689	0.0861654	0.561031	12.2364	0.0499128	0.561031	4.27343	0.0294967
0.57034	0.00228694	0.000153049	0.57034	0.892911	0.00363487	0.566573	0.713241	0.0048319	0.558962	36.8263	0.085669	0.566573	12.2944	0.0497485	0.566573	4.304661	0.0294372
0.576029	0.0023956	0.000153359	0.576029	0.894464	0.00364773	0.572116	0.707316	0.00481041	0.564651	37.0008	0.0853095	0.572116	12.2357	0.0494845	0.572116	4.316421	0.0293912
0.581718	0.00244282	0.000153272	0.581718	0.909911	0.00364318	0.577658	0.710819	0.00481589	0.57034	37.09082	0.0851117	0.577658	12.3204	0.0495177	0.577658	4.364321	0.0294718
0.587407	0.00250764	0.000157625	0.587407	0.91175	0.00373548	0.5832	0.720873	0.0048222	0.576029	37.3518	0.0851695	0.5832	12.4454	0.0496294	0.5832	4.37228	0.0294163
0.593097	0.00263526	0.000162281	0.593097	0.912649	0.00386071	0.588742	0.721464	0.00496276	0.581718	37.7402	0.0853631	0.588742	12.4886	0.0510487	0.588742	4.412099	0.0303424
0.598786	0.00249366	0.000166015	0.598786	0.922862	0.00394449	0.594284	0.717423	0.00510031	0.587407	37.99921	0.086965	0.594284	12.4797	0.0524073	0.594284	4.45425	0.0313095
0.604475	0.00260449	0.000169017	0.604475	0.9245	0.00402266	0.599826	0.731949	0.00522073	0.593097	38.125	0.0899915	0.599826	12.6513	0.0537298	0.599826	4.45582	0.0318868
0.610164	0.00273229	0.000171225	0.610164	0.941007	0.00407772	0.605368	0.729207	0.00531099	0.598786	38.4362	0.0921485	0.605368	12.6772	0.0545861	0.605368	4.51945	0.0325922
0.615853	0.00282512	0.000172617	0.615853	0.939098	0.00411529	0.61091	0.73914	0.00537886	0.604475	38.6345	0.0938435	0.61091	12.7626	0.0553754	0.61091	4.485406	0.0328283
0.621542	0.0029732	0.000175522	0.621542	0.942961	0.00419273	0.616452	0.733906	0.00541987	0.610164	39.0518	0.0955313	0.616452	12.7435	0.0557243	0.616452	4.53176	0.0332303
0.627232	0.00275969	0.000180134	0.627232	0.959086	0.0042852	0.621994	0.731743	0.00550608	0.615853	39.10289	0.0962274	0.621994	12.8212	0.0564926	0.621994	4.644832	0.0340026
0.632921	0.00275363	0.000192114	0.632921	0.958514	0.00457404	0.627536	0.754294	0.00566156	0.621542	39.48395	0.0977669	0.627536	13.0716	0.058243	0.627536	4.62964	0.034662
0.63861	0.00273963	0.000201238	0.63861	0.963773	0.00479289	0.633079	0.754012	0.00603574	0.627232	39.9339	0.100104	0.633079	13.055	0.0621152	0.633079	4.61503	0.0369316
0.644299	0.00303593	0.000210064	0.644299	0.972672	0.00501793	0.638621	0.759254	0.0063214	0.632921	39.8825	0.107004	0.638621	13.1456	0.0650615	0.638621	4.64713	0.0386835
0.649988	0.00324743	0.000218645	0.649988	0.984931	0.00523109	0.644163	0.755973	0.00658961	0.63861	40.116	0.11217	0.644163	13.1671	0.0677316	0.644163	4.71284	0.0405218
0.655678	0.00326012	0.000227784	0.655678	0.992731	0.00545066	0.649705	0.758924	0.00685381	0.644299	40.5378	0.117412	0.649705	13.1981	0.070478	0.649705	4.70893	0.0420978
0.661367	0.00322857	0.000237189	0.661367	0.997777	0.00567526	0.655247	0.765428	0.0071397	0.649988	40.8978	0.122688	0.655247	13.2859	0.0734558	0.655247	4.72168	0.0437903
0.667056	0.00328657	0.000248169	0.667056	1.00296	0.0059454	0.660789	0.771147	0.00743481	0.655678	41.16247	0.127991	0.660789	13.3589	0.0765326	0.660789	4.728193	0.0455312
0.672745	0.00329512	0.00025876	0.672745	1.01812	0.00619603	0.666331	0.773589	0.0077744	0.661367	41.32969	0.133397	0.666331	13.4763	0.0799269	0.666331	4.825711	0.0478286
0.678434	0.00347981	0.000270379	0.678434	1.02418	0.00648751	0.671873	0.786844	0.00810809	0.667056	41.7142	0.139516	0.671873	13.5836	0.0835417	0.671873	4.772934	0.0495209
0.684123	0.0032939	0.000284152	0.684123	1.0369	0.00680767	0.677415	0.785252	0.00846403	0.672745	42.0471	0.146015	0.677415	13.5937	0.087156	0.677415	4.80452	0.0518147
0.689813	0.00365331	0.000298678	0.689813	1.03781	0.00718678	0.682957	0.803707	0.00890154	0.678434	42.3033	0.152963	0.682957	13.815	0.0918213	0.682957	4.810049	0.0541805
0.695502	0.00324947	0.000319364	0.695502	1.03603	0.00759757	0.688499	0.790878	0.00933743	0.684123	42.6993	0.160879	0.688499	13.7625	0.0960403	0.688499	4.91738	0.057408
0.701191	0.00343101	0.000333858	0.701191	1.06223	0.00794223	0.694041	0.785833	0.00977678	0.689813	42.9781	0.169462	0.694041	13.7451	0.100442	0.694041	4.96315	0.060356
0.70688	0.00339263	0.000346921	0.70688	1.06445	0.00825133	0.699584	0.804137	0.0102021	0.695502	43.1031	0.177285	0.699584	13.9356	0.105044	0.699584	4.936891	0.0625224
0.712569	0.00400001	0.000364418	0.712569	1.08146	0.00871249	0.705126	0.807134	0.0107538	0.701191	43.8568	0.186076	0.705126	14.1853	0.110362	0.705126	5.172317	0.0666415
0.718258	0.00410501	0.000381861	0.718258	1.09286	0.00913937	0.710668	0.813041	0.011186	0.70688	43.7971	0.193786	0.710668	14.1516	0.115063	0.710668	5.05943	0.0687991
0.723948	0.00335177	0.000391622	0.723948	1.08988	0.00933624	0.71621	0.830889	0.0117192	0.712569	44.5941	0.204446	0.71621	14.3092	0.120857	0.71621	5.00287	0.0714616
0.729637	0.00387403	0.00039321	0.729637	1.10509	0.00940575	0.721752	0.826511	0.012143	0.718258	44.9457	0.214934	0.721752	14.3202	0.125049	0.721752	5.07116	0.074415
0.735326	0.00358698	0.000404717	0.735326	1.11438	0.00965375	0.727294	0.855101	0.0123685	0.723948	44.98251	0.219509	0.727294	14.7133	0.127582	0.727294	5.13499	0.0753709
0.741015	0.00365066	0.000416454	0.741015	1.11375	0.00994428	0.732836	0.857118	0.0124715	0.729637	45.4076	0.221669	0.732836	14.6746	0.1288	0.732836	5.06649	0.0756811
0.746704	0.00357442	0.00043142	0.746704	1.1394	0.0102855	0.738378	0.854136	0.0128692	0.735326	45.83026	0.227325	0.738378	14.755	0.132623	0.738378	5.19317	0.07868
0.752394	0.0041109	0.000441539	0.752394	1.14326	0.0105691	0.74392	0.884307	0.0133359	0.741015	45.9161	0.233924	0.74392	15.08717	0.137848	0.74392	5.169671	0.0806914
0.758083	0.00350344	0.000462452	0.758083	1.1611	0.0110202	0.749462	0.869554	0.0137141	0.746704	46.69685	0.242781	0.749462	14.9929	0.141398	0.749462	5.2559	0.0837192
0.763772	0.00389338	0.000476123	0.763772	1.16146	0.0113837	0.755004	0.911233	0.0142224	0.752394	46.6655	0.250096	0.755004	15.3577	0.147457	0.755004	5.12026	0.0851433
0.769461	0.00253104	0.000481398	0.769461	1.09518	0.0114052	0.760546	0.874951	0.0146756	0.758083	47.5238	0.260475	0.760546	15.15354	0.151153	0.760546	5.362812	0.0899201
0.77515	0.00311006	0.00047534	0.77515	0.978657	0.0113743	0.766089	0.935293	0.0153296	0.763772	47.5169	0.269229	0.766089	15.7115	0.159069	0.766089	5.199194	0.0915052
0.780839	0.00317766	0.000491442	0.780839	0.949877	0.0117967	0.771631	0.82234	0.0149483	0.769461	44.6699	0.270348	0.771631	13.8935	0.154898	0.771631	4.656554	0.089675
0.786529	0.00339311	0.000504399	0.786529	0.948638	0.0121252	0.777173	0.770989	0.0151672	0.77515	40.5812	0.267467	0.777173	13.196	0.156671	0.777173	4.551525	0.092012
#0.792218	-0.00530832	0.000408729	0.792218	0.264742	0.00901911	0.782715	0.724309	0.0154888	0.780839	39.8648	0.275836	0.782715	12.609	0.159349	0.782715	4.50758	0.0952757
#0.797907	-0.000192243	0.000193261	0.797907	0.00266626	0.00481516	0.788257	0.715434	0.0158792	0.786529	39.27408	0.285733	0.788257	12.2601	0.163984	0.788257	4.238835	0.0964226
#0.803596	-0.000469123	0.000200547	0.803596	0.0159244	0.00479432	0.793799	0.0706038	0.00746109	0.792218	15.3779	0.187269	0.793799	2.060938	0.0704171	0.793799	1.33837	0.0567452
#0.809285	-0.000618164	0.000210499	0.809285	0.00160481	0.00501619	0.799341	0.00145164	0.00627472	0.797907	2.69255	0.0824207	0.799341	1.07535	0.053498	0.799341	1.14604	0.0552284
#0.814974	6.34441e-05	0.000230981	0.814974	0.00876603	0.00581532	0.804883	0.0320776	0.00628878	0.803596	2.61978	0.0859658	0.804883	1.13917	0.058209	0.804883	0.822251	0.0494534
#0.820664	9.44011e-05	0.000248366	0.820664	-0.0151426	0.00638023	0.810425	0.0249105	0.00661066	0.809285	2.24174	0.0846334	0.810425	1.07586	0.0602088	0.810425	0.84494	0.0533575
#0.826353	-0.000369906	0.000273219	0.826353	0.00384285	0.00665523	0.815967	0.00544291	0.00705649	0.814974	2.73996	0.100407	0.815967	0.957717	0.0609532	0.815967	0.9656272	0.0612043
#0.832042	-0.000378848	0.000287772	0.832042	0.00738547	0.00695074	0.821509	-0.0171484	0.00750216	0.820664	2.28225	0.0994269	0.821509	0.795029	0.0602541	0.821509	1.0776	0.0701492
0.837731	0.000502847	0.000349619	0.837731	0.0271885	0.00901383	0.827051	0.0174883	0.00849099	0.826353	2.435993	0.11316	0.827051	1.03826	0.075842	0.827051	0.8991211	0.0705776
#0.84342	-0.000323153	0.000459147	0.84342	0.00591644	0.0112236	0.832594	0.0210011	0.00898015	0.832042	2.20149	0.12124	0.832594	0.9466495	0.0816103	0.832594	0.7534174	0.0728054
#0.84911	-0.00029494	0.000674102	0.84911	0.00196765	0.0165392	0.838136	0.00525948	0.0105384	0.837731	3.06245	0.167158	0.838136	0.8651968	0.0912112	0.838136	0.8664554	0.0912777
#0.851954	-0.000856439	0.00123088	0.851954	0.0344254	0.0280746	0.840907	-0.021719	0.0129368	0.840576	2.350705	0.161998	0.840907	0.9059543	0.103284	0.840907	1.258101	0.121714