File: data/monolayers/nanoparticles/Ac_CoFe_C_AH/vsm/ah11_10K_rescaled.dat
#Loaded datafile ../../AH11_HYST_100OE_10K.DAT
#Rescaled data with factor 0.112525
#B/T	M/kAm-1	sM/kAm-1
1.97909e-05	106.232	4.52137e-05
0.0224628	107.921	3.4498e-05
0.0498642	110.614	4.41243e-05
0.0770437	112.837	4.10569e-05
0.104455	115.51	4.16079e-05
0.134838	118.156	4.22426e-05
0.164297	120.804	4.64026e-05
0.190769	123.015	4.36e-05
0.220883	125.718	4.10617e-05
0.249299	128.296	3.57713e-05
0.275968	130.538	4.4555e-05
0.305178	133.142	4.28159e-05
0.332077	135.377	3.43003e-05
0.361496	137.982	4.02882e-05
0.391914	140.622	4.09369e-05
0.419346	143.257	4.21169e-05
0.450555	145.971	4.04625e-05
0.47902	148.665	4.17974e-05
0.507482	150.851	4.31216e-05
0.538184	153.918	4.86602e-05
0.564382	156.174	4.64314e-05
0.593096	158.879	4.55714e-05
0.620855	161.106	4.83306e-05
0.648838	163.825	5.95789e-05
0.679278	166.543	4.3395e-05
0.706294	168.877	5.31115e-05
0.733997	171.585	5.66765e-05
0.763755	174.392	5.17039e-05
0.791984	176.692	5.66583e-05
0.821722	179.452	6.0186e-05
0.850956	182.344	5.491e-05
0.877693	185.182	5.62839e-05
0.905721	187.61	5.95424e-05
0.93499	190.502	6.9414e-05
0.963962	193.396	5.0919e-05
0.996933	196.329	5.55955e-05
1.02044	198.863	6.40018e-05
1.05389	201.915	6.37822e-05
1.07814	204.949	6.14183e-05
1.10463	207.48	6.67015e-05
1.13459	210.672	6.4628e-05
1.16284	213.787	6.54127e-05
1.19084	216.451	8.09282e-05
1.2188	219.804	6.32025e-05
1.24555	222.467	6.00051e-05
1.27776	225.819	5.70292e-05
1.30301	229.195	7.81795e-05
1.33127	232.126	8.60051e-05
1.36377	236.321	7.45053e-05
1.38923	239.371	7.41398e-05
1.41648	242.98	7.06726e-05
1.44469	245.902	7.41559e-05
1.47318	249.789	8.20978e-05
1.50092	253.668	9.25503e-05
1.52967	256.972	0.000101288
1.55563	260.307	8.12065e-05
1.58386	264.181	8.37633e-05
1.61086	267.633	7.17991e-05
1.63862	271.97	9.10177e-05
1.66981	276.231	7.79616e-05
1.69928	280.532	8.85917e-05
1.72704	285.004	9.26141e-05
1.75453	288.79	9.12926e-05
1.78251	293.348	7.94737e-05
1.81174	298.176	8.86936e-05
1.83951	302.096	8.77053e-05
1.86699	306.938	9.97367e-05
1.89772	311.777	0.000102339
1.92568	315.933	0.00010214
1.95243	320.974	9.25402e-05
1.98666	326.083	0.000108179
2.01013	330.474	8.98576e-05
2.03737	335.744	8.14317e-05
2.06461	340.078	9.16348e-05
2.09209	345.435	9.02816e-05
2.11958	349.953	9.51871e-05
2.14755	355.235	0.000104278
2.17379	359.968	8.80015e-05
2.20277	365.444	0.000106579
2.23104	370.86	0.000101811
2.25802	375.405	0.000116162
2.29303	381.867	9.04992e-05
2.31751	386.462	0.00010968
2.34744	392.055	9.89735e-05
2.37396	396.629	0.000104388
2.40118	402.058	0.00011077
2.43068	407.516	9.25806e-05
2.45838	411.866	0.000113313
2.48914	417.257	0.000110246
2.51711	422.678	0.00011523
2.54487	427.738	0.00011771
2.57182	432.098	0.000106441
2.60178	437.179	9.40292e-05
2.62878	441.197	0.000114641
2.65828	446.38	0.000109213
2.68632	451.059	0.000137125
2.71759	455.916	0.000123712
2.7453	460.735	0.000138866
2.77255	464.51	0.000117685
2.80151	469.038	0.000136394
2.82898	472.925	0.000118999
2.86202	477.137	0.000108114
2.88873	481.445	0.000138534
2.91595	485.604	0.000103321
2.94466	489.85	9.75377e-05
2.97268	492.947	9.4775e-05
3.0017	496.94	0.000108539
3.02839	500.016	0.000119109
3.0566	503.862	0.000118201
3.08388	506.877	0.000160208
3.11083	510.57	0.000104423
3.14085	514.06	0.000126489
3.16759	516.688	0.000139184
3.19807	520.118	0.000135984
3.22607	523.377	0.000135746
3.25978	526.506	0.000126555
3.28578	529.8	0.000124119
3.313	532.212	0.000104916
3.34672	535.841	0.000159967
3.3762	538.501	0.000119954
3.40595	541.04	0.000140346
3.43345	544.384	0.000134108
3.4619	546.559	0.000112133
3.48989	549.214	0.000146877
3.51837	551.102	0.000111331
3.54687	553.563	0.000124374
3.57586	555.995	0.000113476
3.6036	558.141	0.000134446
3.63132	560.762	0.000135791
3.66104	562.897	0.000112588
3.68827	565.54	0.000114921
3.71726	567.366	0.000140477
3.75052	569.494	0.000146469
3.77525	571.359	0.000146618
3.80496	573.561	0.000103067
3.83419	575.681	0.000178837
3.86344	577.388	0.000120937
3.89366	579.423	0.000149108
3.92239	581.333	0.000122157
3.95134	583.237	0.000150872
3.98084	584.958	0.000150219
4.00663	586.553	0.000115887
4.03485	588.358	0.000112186
4.06484	590.157	0.000160154
4.09159	591.524	0.000121236
4.12031	593.507	0.000140923
4.14953	595.036	0.000149061
4.17828	596.58	0.000166901
4.20902	597.961	0.000170263
4.23724	599.401	0.000130328
4.26748	600.985	0.000154787
4.29446	602.684	0.000175884
4.32343	604.363	0.000160826
4.35192	605.41	0.000161242
4.38066	606.804	0.000155829
4.40964	608.293	0.000165403
4.43862	609.922	0.000136605
4.46641	610.82	0.000138199
4.4989	612.387	0.000152116
4.52515	613.57	0.000171713
4.55415	614.734	0.000140109
4.58336	616.405	0.000173141
4.61009	617.473	0.000144557
4.64108	618.696	0.00016674
4.66582	619.362	0.000193439
4.69378	620.865	0.000222787
4.72178	622.101	0.000153172
4.75001	622.807	0.000180501
4.78074	624.185	0.0001813
4.81074	625.433	0.00016633
4.83746	626.273	0.000189947
4.86494	627.493	0.00015397
4.89493	628.63	0.000183613
4.92041	629.465	0.000170479
4.95092	630.655	0.000168724
4.97891	631.766	0.000132657
5.00565	632.605	0.000199593
5.03508	633.49	0.00014037
5.06611	634.357	0.00019177
5.09784	635.569	0.000207988
5.12231	636.474	0.000188512
5.14952	637.636	0.000143941
5.18303	638.982	0.000154737
5.21251	639.482	0.000133519
5.24823	640.425	0.000199349
5.27796	641.593	0.000147763
5.30694	642.555	0.000187929
5.33846	643.286	0.000194048
5.36893	644.419	0.000184331
5.407925	645.17	0.000178333
5.44115	646.247	0.000154429
5.47112	647.528	0.000197018
5.50308	648.23	0.000241679
5.5406	649.175	0.0001646
5.56859	649.948	0.000166202
5.5983	650.909	0.000199226
5.63104	651.597	0.000180885
5.66176	652.013	0.000152046
5.69574	653.128	0.00019155
5.73223	653.735	0.000148277
5.75868	654.837	0.000176343
5.79044	655.502	0.000168829
5.82447	656.236	0.00020398
5.85221	656.954	0.000187465
5.88594	658.057	0.00021053
5.91164	658.678	0.000168124
5.94364	659.375	0.000184033
5.97465	659.964	0.000170774
6.00585	660.593	0.000179503
6.04408	661.248	0.000185122
6.07232	662.03	0.000184014
6.10731	662.5	0.000179468
6.13652	663.627	0.000195882
6.16848	664.255	0.00020303
6.19875	664.474	0.000195909
6.23197	665.072	0.000215584
6.26077	665.491	0.000182782
6.2913	666.66	0.000197824
6.32351	667.079	0.000253519
6.35375	667.578	0.00021944
6.3817	667.931	0.00015633
6.41393	668.582	0.000202686
6.44294	669.055	0.000210599
6.4769	669.826	0.000185185
6.50538	670.096	0.000182892
6.5376	670.908	0.000217651
6.56988	671.325	0.000217664
6.6051	671.57	0.000195241
6.6368	672.207	0.000203285
6.6658	673.09	0.000208418
6.69629	673.524	0.000194186
6.7283	674.208	0.00017452
6.76303	674.409	0.000189773
6.79452	675.052	0.000229335
6.82098	675.486	0.000182959
6.85272	676.158	0.000221502
6.88748	676.244	0.000192093
6.92192	676.741	0.000175203
6.9524	677.166	0.000208269
6.98366	677.525	0.000220638
7.01735	678.051	0.000214115
7.04661	678.646	0.000219996
7.07932	678.927	0.000215361
7.11109	679.373	0.000205277
7.13985	679.731	0.000236215
7.17483	680.223	0.00019247
7.20655	680.812	0.000284032
7.23654	680.944	0.000231395
7.27074	681.169	0.000205946
7.30229	681.721	0.000238769
7.33576	682.039	0.000220859
7.36597	682.403	0.000255846
7.40264	682.667	0.000214619
7.43243	682.775	0.000226982
7.46469	682.989	0.000227327
7.49864	683.563	0.000230536
7.53439	683.34	0.000203185
7.56111	683.994	0.000235181
7.59288	684.023	0.000222935
7.62442	685.063	0.000242147
7.6566	684.375	0.000214678
7.69108	684.781	0.000243558
7.71835	685.53	0.000189821
7.74957	685.643	0.000239302
7.7808	685.865	0.000271752
7.81553	686.383	0.000270469
7.85052	686.751	0.000223533
7.88401	686.553	0.000227965
7.916	686.965	0.000235733
7.95095	687.206	0.000236521
7.9772	687.556	0.000262601
8.01196	687.998	0.000226984
8.04127	687.885	0.000247164
8.07449	688.343	0.000236455
8.10549	688.692	0.000255321
8.13967	688.667	0.000235001
8.16721	688.655	0.000260962
8.19789	688.785	0.000274096
8.22844	689.24	0.000204664
8.25814	689.745	0.000242261
8.28763	689.445	0.000229947
8.32039	689.649	0.00020803
8.35535	689.625	0.000263405
8.38381	689.949	0.000216154
8.41807	690.451	0.000230281
8.44906	690.367	0.000225722
8.48132	690.161	0.000259239
8.51528	690.488	0.000227884
8.54428	690.281	0.000251304
8.57403	690.678	0.000197533
8.60725	690.607	0.000247466
8.63421	690.97	0.000306778
8.66322	691.163	0.000293288
8.69296	691.406	0.000266993
8.72745	691.896	0.000213372
8.75395	691.65	0.000248358
8.78492	691.618	0.000289159
8.81114	691.476	0.000255074
8.84191	691.979	0.00022054
8.8736	692.03	0.000232509
8.90389	692.439	0.000240456
8.93584	692.555	0.000206435
8.9651	692.972	0.000237361
8.99957	692.432	0.00023278
8.97676	691.881	0.000278354
8.94239	692.839	0.00026694
8.90821	692.42	0.00022517
8.88076	692.974	0.000244818
8.85175	692.973	0.000235676
8.82079	692.246	0.000255923
8.79155	692.814	0.000255496
8.76156	692.009	0.000238601
8.73283	692.229	0.000240106
8.70209	692.973	0.000235948
8.67134	692.111	0.000235695
8.64333	692.282	0.000262356
8.61337	692.288	0.000247482
8.58316	692.653	0.000255981
8.55441	692.278	0.000244132
8.52467	692.207	0.000253148
8.49316	691.871	0.000237483
8.46266	691.615	0.000213412
8.43467	691.445	0.000294858
8.40591	691.609	0.000300043
8.37569	691.206	0.000208364
8.3417	691.346	0.000247237
8.31096	691.365	0.000236024
8.28025	691.651	0.000201012
8.24677	691.412	0.000214543
8.21251	690.631	0.000229871
8.17849	690.895	0.000279279
8.15153	690.347	0.000218321
8.12005	690.57	0.000274916
8.08705	689.874	0.000236669
8.05456	690.105	0.000188792
8.02178	690.071	0.000272372
7.98627	690.239	0.000172127
7.95879	689.178	0.000232008
7.9268	689.562	0.000263153
7.89358	689.259	0.000211035
7.86109	689.129	0.000208133
7.827575	688.669	0.000230235
7.79461	688.506	0.000215779
7.76087	687.985	0.0002331
7.7346	687.467	0.000214223
7.69992	687.585	0.000265684
7.66941	687.593	0.000253921
7.63992	686.999	0.000263612
7.60694	686.81	0.000243169
7.5764	686.741	0.000252143
7.54293	686.343	0.000244589
7.51392	686.555	0.000290399
7.48394	686.438	0.000183973
7.45196	685.771	0.000245481
7.42099	685.659	0.000210275
7.38748	685.715	0.000205169
7.35549	685.401	0.000242225
7.32126	684.981	0.00024018
7.28877	684.53	0.000200869
7.25626	684.395	0.00021445
7.21935	684.175	0.000201463
7.19258	683.75	0.000227256
7.15983	683.394	0.000297732
7.12533	683.017	0.000234099
7.09509	682.961	0.000205161
7.06161	682.431	0.000206861
7.02663	682.095	0.000218198
6.99464	681.489	0.000199473
6.96916	681.329	0.000169565
6.93342	681.115	0.000195411
6.90144	680.599	0.000193647
6.87019	680.151	0.000187416
6.83747	679.801	0.000219975
6.80698	679.742	0.000203654
6.77751	679.429	0.000206394
6.74554	678.846	0.000189465
6.71554	678.729	0.000196652
6.67877	678.118	0.000219625
6.65277	677.622	0.000201998
6.61605	677.671	0.000178664
6.58779	676.66	0.000215847
6.55658	676.356	0.000200302
6.52509	675.554	0.000245889
6.48961	675.454	0.000217817
6.4579	675.161	0.000179589
6.4299	674.289	0.000202312
6.3999	673.856	0.00023026
6.36518	673.248	0.000194789
6.33644	672.891	0.000210909
6.30497	672.865	0.000202057
6.26997	672.177	0.000189594
6.23568	671.227	0.00020704
6.20643	671.157	0.000210357
6.17595	670.428	0.000219929
6.14449	669.942	0.000226162
6.1135	669.482	0.000216168
6.08276	668.248	0.000179581
6.05429	668.097	0.00022153
6.02082	667.819	0.000223886
5.98807	667.095	0.000256432
5.95158	666.121	0.000197732
5.91784	665.71	0.00019915
5.89087	665.125	0.000217205
5.86037	664.874	0.000203203
5.82739	663.918	0.000223355
5.79314	663.419	0.000227219
5.76464	662.577	0.000230245
5.73315	662.205	0.000195051
5.70166	661.672	0.000201633
5.67147	660.855	0.000208727
5.64043	660.111	0.000217183
5.60798	659.79	0.00020028
5.57825	658.848	0.000212229
5.54577	658.287	0.000184043
5.51179	657.302	0.000233054
5.47779	656.591	0.000223748
5.44407	655.969	0.000254031
5.41761	655.391	0.000228512
5.38135	654.274	0.000187241
5.35237	653.798	0.000196701
5.32113	653.068	0.000214591
5.29112	652.243	0.000233645
5.25292	651.24	0.00022013
5.22243	650.428	0.000216746
5.18847	649.781	0.000186977
5.15446	648.535	0.00016108
5.1262	648.085	0.000238106
5.08725	647.133	0.000176066
5.06156	646.559	0.00019964
5.03055	645.862	0.000245432
4.99406	644.747	0.000189876
4.96685	643.714	0.000177286
4.93356	642.857	0.000200874
4.90259	641.731	0.000187386
4.86413	641.074	0.000180965
4.83388	640.307	0.000193298
4.80438	639.074	0.000149887
4.76666	638.044	0.000167506
4.73493	637.189	0.000145821
4.70293	635.632	0.000171745
4.667	634.873	0.000161349
4.63874	633.838	0.000149203
4.60847	632.978	0.000162493
4.57524	632.008	0.000186971
4.54478	630.89	0.000171022
4.51805	630.487	0.00016426
4.48235	629.118	0.000150527
4.45329	628.324	0.000169824
4.42155	627.067	0.000185858
4.3843	626.205	0.00018439
4.35508	625.03	0.000175642
4.3241	624.035	0.000190732
4.29387	622.452	0.000186366
4.26163	621.717	0.000237339
4.22892	620.678	0.000164468
4.19944	619.233	0.000189912
4.16194	618.04	0.000145428
4.1332	617.197	0.000143386
4.1035	615.802	0.000201886
4.0705	614.61	0.000155217
4.03803	614.015	0.000139993
4.00402	612.303	0.000142773
3.97402	611.26	0.000145432
3.93802	609.705	0.000181507
3.91053	608.422	0.000166326
3.88107	607.441	0.000151223
3.85035	606.085	0.000179916
3.82134	605.063	0.000162412
3.78564	603.726	0.000189506
3.75766	602.469	0.000148579
3.72518	601.356	0.000145413
3.6937	599.77	0.00016029
3.66647	598.639	0.000135183
3.63275	597.065	0.000166309
3.60349	596.202	0.000177792
3.57177	594.44	0.000150675
3.54201	593.035	0.00015819
3.5058	591.986	0.000147622
3.4723	590.433	0.000127305
3.44484	589.109	0.000167906
3.41385	587.668	0.000162432
3.38038	586.513	0.000150052
3.3539	584.673	0.000135894
3.32091	583.429	0.000149856
3.28592	581.718	0.00016023
3.25045	580.337	0.000135321
3.22373	578.57	0.000135322
3.192	577.08	0.00015035
3.15627	575.616	0.000137371
3.12452	573.838	0.000149163
3.09703	572.402	0.000173861
3.06803	570.865	0.000148344
3.03705	569.401	0.00015112
3.00181	567.757	0.000146004
2.96987	566.135	0.000157787
2.93611	564.602	0.000122767
2.9084	562.959	0.000124869
2.87615	561.199	0.00013834
2.84542	559.586	0.000139253
2.80819	557.731	0.000148556
2.78148	556.196	0.000162953
2.75149	554.336	0.000146244
2.71926	552.678	0.000142668
2.68929	550.76	0.00015754
2.65873	549.241	0.000144333
2.62725	547.538	0.000155614
2.59552	545.889	0.000164985
2.56253	543.659	0.000145836
2.52781	542.166	0.000119181
2.49458	540.219	0.000128893
2.46333	538.187	0.000134598
2.43262	536.326	0.000128662
2.39862	534.403	8.7758e-05
2.36867	532.706	0.000112792
2.33542	530.831	0.000114835
2.30546	528.977	0.000112649
2.27399	526.952	0.0001285
2.24499	525.524	0.000126128
2.21374	523.215	0.000106529
2.17748	521.507	0.000124887
2.14375	519.284	0.000118963
2.11727	517.493	0.000137489
2.08629	515.515	0.000112233
2.05781	513.676	0.00010718
2.02258	511.743	0.000111611
1.9911	509.493	0.000102591
1.96313	507.479	9.69419e-05
1.93163	505.658	0.000130696
1.89592	503.196	0.000106059
1.86471	501.005	9.68632e-05
1.83397	499.004	0.000103371
1.79871	496.533	0.000100972
1.7677	494.649	0.000115854
1.73251	492.629	9.91875e-05
1.70527	490.572	0.000108391
1.67204	488.182	0.000108403
1.64282	486.095	9.02815e-05
1.61334	483.93	0.000119599
1.58234	481.776	9.59636e-05
1.54912	479.481	8.53176e-05
1.51838	477.314	0.000101415
1.48566	475.243	8.58079e-05
1.45566	473.141	6.95343e-05
1.4247	470.584	9.83582e-05
1.3932	468.468	7.93479e-05
1.36048	466.263	9.02606e-05
1.33021	463.611	9.78811e-05
1.30025	461.357	9.52159e-05
1.26127	458.797	7.67093e-05
1.23329	456.559	8.97674e-05
1.20508	454.401	0.000104774
1.17303	452.166	7.34602e-05
1.14133	449.874	8.09302e-05
1.10911	447.119	9.20962e-05
1.07716	444.95	6.64255e-05
1.04014	442.198	8.19326e-05
1.01164	439.987	9.35821e-05
0.978705	437.517	8.39496e-05
0.946447	434.871	8.27553e-05
0.919226	432.541	8.20199e-05
0.888449	430.129	8.36628e-05
0.853697	427.381	7.37185e-05
0.822924	424.929	6.97122e-05
0.792971	422.566	5.13355e-05
0.761555	420.148	6.33142e-05
0.720057	416.816	7.25107e-05
0.693283	414.42	6.91625e-05
0.659586	411.975	6.31152e-05
0.628589	409.091	7.04589e-05
0.599107	406.542	7.83236e-05
0.564614	403.999	7.20461e-05
0.533135	401.072	6.26319e-05
0.506169	398.955	6.9515e-05
0.472193	395.998	7.49672e-05
0.445188	393.37	7.30694e-05
0.40592	390.339	7.93253e-05
0.377667	387.67	6.55696e-05
0.345407	384.659	5.04649e-05
0.31269	381.982	5.83393e-05
0.283466	379.28	6.7953e-05
0.251461	376.1	5.43425e-05
0.219489	373.388	5.97244e-05
0.188724	370.689	5.58325e-05
0.152966	367.469	7.26487e-05
0.117225	364.148	5.81609e-05
0.0825193	360.838	6.35463e-05
0.0570513	358.435	5.8847e-05
0.0247996	355.123	5.70443e-05
-0.00644384	352.414	6.00069e-05
-0.0371819	349.412	5.58271e-05
-0.0696194	345.887	6.22323e-05
-0.104053	342.886	6.60085e-05
-0.13664	339.346	5.64919e-05
-0.162078	336.796	7.24165e-05
-0.19872	333.248	6.46952e-05
-0.227891	329.622	5.0409e-05
-0.259053	326.592	6.16594e-05
-0.289521	323.516	5.09436e-05
-0.325516	319.866	6.93731e-05
-0.360307	316.123	7.36381e-05
-0.387077	312.885	6.3733e-05
-0.418082	309.621	6.47807e-05
-0.448824	306.356	6.18477e-05
-0.479877	303.126	6.95063e-05
-0.514368	299.696	6.12902e-05
-0.544097	295.799	6.57925e-05
-0.574333	292.367	6.82576e-05
-0.607062	288.832	7.36952e-05
-0.642759	284.683	6.90949e-05
-0.670048	281.067	6.42085e-05
-0.699007	277.386	6.82475e-05
-0.733768	273.662	5.46417e-05
-0.766738	269.235	5.82958e-05
-0.794966	265.337	6.12666e-05
-0.825208	261.347	6.89395e-05
-0.855182	257.356	7.42097e-05
-0.892746	252.51	6.93029e-05
-0.918991	248.224	7.20327e-05
-0.955222	243.073	6.85582e-05
-0.982236	238.643	6.496e-05
-1.01592	234.018	7.53364e-05
-1.0474	228.497	6.4718e-05
-1.07917	223.749	8.29502e-05
-1.11088	217.88	7.22159e-05
-1.14313	212.685	7.30732e-05
-1.17508	207.244	7.25357e-05
-1.20856	200.856	7.12365e-05
-1.24479	194.273	6.0798e-05
-1.27955	187.253	8.64988e-05
-1.30626	182.165	9.22453e-05
-1.33924	174.833	0.000100307
-1.37328	168.195	8.12816e-05
-1.40076	161.603	7.0995e-05
-1.43199	153.264	0.000109607
-1.46175	146.116	9.44266e-05
-1.49193	138.553	0.000103188
-1.52042	131.988	0.000117131
-1.54867	124.093	0.000100734
-1.57738	115.857	9.74517e-05
-1.60409	108.823	9.6849e-05
-1.63311	99.9732	0.00010583
-1.66558	90.9232	0.000107122
-1.69677	80.2536	0.000100964
-1.73031	70.5041	0.000124132
-1.76303	58.912	0.00011358
-1.79224	48.6718	0.000122818
-1.82176	38.1884	0.000109505
-1.85425	27.5933	0.000113946
-1.88922	14.7448	9.91224e-05
-1.9187	3.50121	0.000118651
-1.95767	-10.0859	0.000113325
-1.98541	-23.6754	0.000126586
-2.01539	-33.627	0.000148548
-2.05008	-47.9202	0.000140521
-2.07834	-60.2585	0.00013158
-2.11557	-74.8011	0.000129813
-2.14355	-87.5279	0.000152559
-2.1783	-102.212	0.000147063
-2.20774	-115.125	0.000146887
-2.24275	-130.006	0.000121783
-2.27053	-142.919	0.000163808
-2.30172	-155.959	0.000129523
-2.33271	-168.847	0.000162085
-2.36169	-181.874	0.000153417
-2.39242	-194.735	0.000141717
-2.424425	-207.361	0.000139005
-2.45234	-219.904	0.000168249
-2.48534	-234.384	0.000142357
-2.51484	-246.65	0.000112177
-2.54633	-258.756	0.000146806
-2.57755	-270.828	0.000155836
-2.60852	-282.726	0.000134839
-2.63925	-294.059	0.000154497
-2.67328	-307.36	0.00016148
-2.70601	-320.218	0.000177752
-2.73675	-331.315	0.000144742
-2.769	-343.487	0.000128483
-2.8017	-353.584	0.000165619
-2.83197	-363.835	0.000152323
-2.86742	-374.878	0.00014583
-2.89861	-384.316	0.000160107
-2.92638	-393.522	0.000128016
-2.96209	-402.28	0.000156535
-2.98884	-410.759	0.00013031
-3.02006	-420.637	0.000173551
-3.05203	-428.489	0.000160079
-3.08623	-437.528	0.000170767
-3.11827	-444.896	0.000168606
-3.14705	-452.202	0.000145059
-3.17799	-459.16	0.000170976
-3.211	-467.046	0.000154084
-3.24119	-473.597	0.000155487
-3.27517	-480.73	0.000143191
-3.3064	-487.142	0.000151811
-3.33814	-492.666	0.000136252
-3.36933	-499.16	0.000144921
-3.40258	-504.614	0.000183665
-3.43106	-509.577	0.000188495
-3.46055	-514.695	0.00017478
-3.49202	-519.4	0.000140582
-3.52722	-524.739	0.000167087
-3.56248	-530.607	0.00015598
-3.589	-534.734	0.000173462
-3.62318	-538.842	0.000174656
-3.65443	-543.253	0.000150561
-3.69112	-547.166	0.000116192
-3.72115	-551.916	0.000175032
-3.74885	-555.173	0.000141509
-3.78537	-558.938	0.000157382
-3.8118	-561.956	0.000138662
-3.84335	-565.967	0.000187546
-3.87558	-569.114	0.00013929
-3.90603	-572.19	0.000120888
-3.93877	-575.572	0.000141618
-3.96748	-577.703	0.000172592
-3.99896	-581.014	0.000193657
-4.03273	-584.134	0.000168595
-4.06471	-586.904	0.000177073
-4.09695	-589.13	0.000184441
-4.12963	-591.755	0.000196088
-4.16314	-594.901	0.000167694
-4.19011	-597.02	0.000191278
-4.22761	-599.459	0.000172164
-4.25856	-602.294	0.000183948
-4.29107	-604.103	0.000191718
-4.31929	-606.17	0.000121208
-4.35701	-608.672	0.000167736
-4.38698	-610.313	0.000158936
-4.41848	-612.611	0.000154104
-4.44696	-614.128	0.000181575
-4.47777	-616.298	0.000164136
-4.50572	-617.534	0.000214622
-4.53395	-619.274	0.000204438
-4.56445	-621.174	0.0002058
-4.59367	-622.549	0.000167355
-4.62518	-623.996	0.000201116
-4.65841	-625.563	0.000178226
-4.69063	-627.394	0.00018033
-4.71832	-628.738	0.000176438
-4.74958	-630.037	0.000193974
-4.77831	-631.613	0.000207571
-4.80899	-632.806	0.00021706
-4.84001	-634.199	0.000170469
-4.87401	-635.74	0.000188691
-4.90951	-637.478	0.000230248
-4.93948	-638.631	0.000197437
-4.97298	-640.125	0.0002106
-5.0052	-641.289	0.00020883
-5.03494	-642.666	0.000227179
-5.06966	-643.952	0.00023635
-5.10086	-645.23	0.000170018
-5.13261	-646.189	0.000235756
-5.16856	-647.215	0.000176424
-5.19456	-648.286	0.000248359
-5.22831	-649.311	0.00021287
-5.2545	-649.96	0.000191117
-5.2867	-651.279	0.000208899
-5.31897	-652.335	0.000197633
-5.34895	-653.261	0.000208277
-5.38642	-654.287	0.000184693
-5.41442	-655.663	0.000203651
-5.44416	-656.529	0.00018488
-5.47712	-656.886	0.000196396
-5.50837	-658.184	0.000229206
-5.53861	-659.21	0.000215815
-5.56708	-659.886	0.000208142
-5.60453	-660.681	0.000179297
-5.63954	-661.845	0.000226736
-5.66653	-662.488	0.00017789
-5.70471	-663.375	0.000245276
-5.73247	-664.303	0.000233459
-5.76472	-664.562	0.000248562
-5.7977	-665.674	0.000289679
-5.83295	-666.453	0.000300331
-5.86241	-667.01	0.000207956
-5.89288	-667.701	0.000230569
-5.9266	-668.648	0.000219436
-5.95785	-669.424	0.000232721
-5.99433	-670.436	0.000255085
-6.02229	-670.922	0.000220667
-6.05753	-671.271	0.00025924
-6.09226	-672.151	0.00021839
-6.12275	-673.173	0.000205051
-6.15372	-673.598	0.000246756
-6.18545	-674.292	0.000205173
-6.21718	-674.642	0.00026187
-6.2482	-674.947	0.000226551
-6.28146	-675.908	0.000230213
-6.31295	-676.305	0.000213023
-6.33868	-677.055	0.000233527
-6.37016	-677.236	0.000247303
-6.40288	-677.956	0.000247253
-6.4333	-678.041	0.000199351
-6.46908	-679.416	0.000226282
-6.49403	-679.692	0.00021452
-6.52952	-679.942	0.000213865
-6.56226	-681.05	0.00022168
-6.59225	-681.451	0.000238942
-6.62369	-682.033	0.000247238
-6.65192	-682.092	0.000240644
-6.68396	-683.009	0.000274084
-6.71772	-683.303	0.000256923
-6.7514	-683.956	0.000256289
-6.78343	-684.568	0.000231432
-6.81762	-685.027	0.000222213
-6.84735	-685.468	0.000286006
-6.87634	-685.858	0.000252328
-6.91079	-686.261	0.000248186
-6.94153	-686.219	0.000266363
-6.97674	-687.152	0.00021001
-7.00348	-687.243	0.000236501
-7.03194	-687.689	0.000209054
-7.06592	-688.078	0.000269407
-7.09766	-688.616	0.000237383
-7.13341	-688.807	0.000306272
-7.16063	-688.992	0.000265199
-7.1881	-689.63	0.000288442
-7.22359	-690.055	0.000225617
-7.2523	-689.879	0.000306311
-7.28206	-690.72	0.00031983
-7.31628	-690.687	0.000280062
-7.35227	-691.402	0.000221877
-7.38698	-692.191	0.000281707
-7.41321	-692.015	0.000307176
-7.44816	-692.939	0.000240669
-7.4762	-692.517	0.000261986
-7.50766	-693.109	0.000251762
-7.54162	-692.893	0.000279791
-7.57384	-693.529	0.000272609
-7.60855	-693.927	0.000265385
-7.63584	-694.396	0.000317078
-7.67084	-694.287	0.000281064
-7.70076	-694.46	0.000274041
-7.73251	-694.821	0.000273792
-7.76925	-695.692	0.000327459
-7.79525	-695.968	0.000275281
-7.82822	-695.728	0.000260512
-7.86119	-696.644	0.000263797
-7.89218	-696.474	0.000333573
-7.92188	-696.588	0.000267938
-7.95587	-696.508	0.000286813
-7.98611	-696.606	0.000273248
-8.01859	-697.195	0.000243938
-8.05137	-697.728	0.00026907
-8.08386	-697.501	0.00025467
-8.11335	-697.946	0.000279363
-8.14905	-698.072	0.000261759
-8.17926	-697.901	0.000240569
-8.21127	-698.318	0.000282662
-8.23974	-698.524	0.000270647
-8.27145	-698.826	0.000308265
-8.3032	-698.748	0.000268448
-8.33341	-699.303	0.000306807
-8.37014	-699.88	0.000330984
-8.40059	-699.608	0.000249033
-8.43609	-699.591	0.000253718
-8.4638	-700.284	0.000317169
-8.49259	-699.727	0.000290418
-8.52205	-700.303	0.000280559
-8.5508	-700.341	0.000331462
-8.585	-700.19	0.000282888
-8.61176	-700.431	0.000373661
-8.63972	-700.794	0.000321601
-8.6707	-700.277	0.000310702
-8.69742	-700.051	0.000267995
-8.72665	-700.505	0.000317149
-8.75688	-700.167	0.000304094
-8.78536	-700.709	0.000293239
-8.81633	-700.888	0.000294713
-8.84782	-701.071	0.000321146
-8.87703	-700.406	0.000289638
-8.90876	-700.989	0.000331438
-8.94027	-700.504	0.000335318
-8.96823	-701.228	0.000273681
-8.99838	-701.088	0.000248409
-8.9704	-701.025	0.000312311
-8.94389	-701.22	0.000289259
-8.91475	-701.256	0.000276038
-8.88577	-701.061	0.000320589
-8.85455	-700.922	0.000388216
-8.82634	-701.265	0.000328495
-8.79267	-701.387	0.000301195
-8.76491	-700.849	0.000354658
-8.73593	-701.257	0.000305221
-8.70744	-700.861	0.000279448
-8.68023	-700.548	0.000297489
-8.65097	-701.186	0.000336748
-8.6225	-700.582	0.000311412
-8.594775	-700.746	0.00025785
-8.56181	-700.813	0.000312172
-8.53234	-700.439	0.000269453
-8.50085	-700.219	0.000349491
-8.47309	-700.105	0.000365551
-8.44284	-700.203	0.000291755
-8.41087	-699.999	0.000320653
-8.37788	-700.102	0.000321098
-8.34519	-699.94	0.000296598
-8.3167	-699.977	0.000308341
-8.28868	-699.133	0.000284032
-8.25324	-699.421	0.000271795
-8.22226	-699.208	0.000257339
-8.19129	-698.765	0.000246777
-8.1573	-698.515	0.000296141
-8.12208	-698.316	0.000270815
-8.08861	-698.295	0.000343633
-8.06261	-698.336	0.000336378
-8.02336	-698.651	0.00032414
-7.99787	-697.949	0.000307498
-7.96361	-698.178	0.000289503
-7.93487	-697.712	0.000294174
-7.90415	-696.966	0.000304335
-7.8697	-697.601	0.000277193
-7.83921	-697.212	0.000308492
-7.80746	-697.273	0.000222701
-7.77723	-697.096	0.000241638
-7.74579	-697.089	0.000286415
-7.71153	-696.422	0.000307119
-7.68207	-695.788	0.000301834
-7.64986	-694.936	0.00031416
-7.61764	-695.415	0.000283728
-7.58789	-695.186	0.000231179
-7.55636	-695.388	0.000295825
-7.52766	-694.791	0.000285874
-7.49039	-694.525	0.000280506
-7.46093	-694.112	0.000275697
-7.42921	-694.155	0.000259443
-7.39624	-693.474	0.00029564
-7.36696	-693.501	0.000279394
-7.33729	-692.928	0.00025776
-7.30652	-692.701	0.000286751
-7.27106	-692.366	0.000255838
-7.24231	-691.801	0.000319458
-7.20887	-691.443	0.00024894
-7.17687	-691.347	0.000243199
-7.14764	-690.952	0.000274824
-7.1159	-690.546	0.000266537
-7.08541	-690.718	0.000264065
-7.05318	-689.824	0.000229801
-7.01544	-689.766	0.000267325
-6.98949	-689.292	0.00025898
-6.95724	-689.088	0.000278886
-6.92701	-688.208	0.000284511
-6.89529	-689.047	0.000237325
-6.86408	-687.959	0.000212611
-6.83459	-687.761	0.000241894
-6.80162	-687.042	0.000245259
-6.77266	-687.041	0.000244867
-6.74165	-686.218	0.000259623
-6.70467	-685.988	0.000237831
-6.67566	-685.319	0.00023792
-6.6432	-685.125	0.000289433
-6.61195	-684.867	0.00023706
-6.58148	-684.258	0.00024261
-6.54798	-684.012	0.000194183
-6.52051	-683.195	0.000243297
-6.48903	-682.946	0.00026686
-6.45807	-682.289	0.000215462
-6.42409	-681.932	0.000254963
-6.3951	-681.833	0.000272305
-6.35962	-681.213	0.000281479
-6.3329	-680.851	0.000237656
-6.30391	-680.339	0.000216864
-6.26593	-679.877	0.000229049
-6.23817	-678.811	0.000303108
-6.20518	-678.338	0.000246344
-6.1712	-678.156	0.000211604
-6.14021	-677.414	0.00020342
-6.10224	-676.86	0.000278594
-6.07602	-676.289	0.00022467
-6.04152	-675.394	0.00019459
-6.00929	-675.125	0.000278623
-5.97552	-674.489	0.000233184
-5.94486	-674.138	0.000268089
-5.91388	-672.938	0.000241496
-5.87637	-672.205	0.000233619
-5.84616	-672.345	0.000184219
-5.80969	-671.531	0.000228349
-5.77997	-670.881	0.000238839
-5.74645	-669.717	0.000277196
-5.71346	-669.039	0.000222988
-5.68599	-668.741	0.00022869
-5.64951	-667.785	0.000228073
-5.62329	-666.935	0.00021808
-5.59151	-666.505	0.000222947
-5.55557	-665.473	0.000210056
-5.52684	-664.856	0.000221373
-5.49436	-664.419	0.000180371
-5.46265	-663.622	0.000243108
-5.42691	-662.468	0.000232591
-5.39222	-662.108	0.000207467
-5.35871	-661.152	0.000220732
-5.32744	-660.198	0.000218331
-5.29593	-659.589	0.000234095
-5.26602	-658.702	0.000187864
-5.23128	-658.25	0.000244617
-5.20104	-657.375	0.000223106
-5.16858	-656.3	0.000204375
-5.13282	-655.293	0.000225318
-5.10488	-654.928	0.000242924
-5.07536	-654.057	0.000197191
-5.03913	-653.447	0.00019437
-5.00643	-651.988	0.000230058
-4.97746	-651.415	0.00026145
-4.94752	-650.258	0.000243881
-4.9105	-649.355	0.000177173
-4.88048	-648.512	0.000201462
-4.84973	-647.484	0.000173976
-4.81676	-646.508	0.00018633
-4.78678	-645.913	0.00020069
-4.75731	-644.988	0.000214006
-4.72158	-644.068	0.000233849
-4.68862	-642.661	0.000221079
-4.65588	-641.782	0.000205281
-4.62315	-640.687	0.000196511
-4.59518	-639.846	0.00021787
-4.56097	-638.727	0.000176621
-4.5315	-637.634	0.000248609
-4.49624	-636.391	0.000243427
-4.46249	-635.425	0.000186491
-4.43524	-634.254	0.000195497
-4.40071	-633.472	0.000201565
-4.36672	-632.27	0.000228048
-4.33704	-631.035	0.000216016
-4.30028	-629.791	0.000254704
-4.26631	-628.687	0.000219412
-4.2416	-627.929	0.000169089
-4.21113	-626.93	0.000198005
-4.17662	-625.659	0.000204577
-4.14614	-624.49	0.000203409
-4.1127	-622.786	0.000195722
-4.08068	-621.848	0.000203548
-4.04396	-620.114	0.00020405
-4.01147	-618.946	0.000172519
-3.98373	-617.713	0.000196255
-3.95175	-617.291	0.000183356
-3.91803	-615.818	0.000222221
-3.88529	-613.755	0.000189631
-3.85531	-613.028	0.000187646
-3.81808	-611.509	0.000192525
-3.79063	-610.25	0.00019039
-3.75535	-609.029	0.000195817
-3.72039	-607.328	0.000203801
-3.69439	-606.548	0.000184429
-3.65869	-604.583	0.000214221
-3.62919	-603.454	0.000168425
-3.59699	-602.418	0.00017512
-3.56473	-600.902	0.000165151
-3.53476	-599.683	0.000162749
-3.50403	-598.231	0.000176543
-3.4718	-596.887	0.000195659
-3.43808	-595.337	0.000168528
-3.41087	-593.811	0.000168081
-3.38162	-592.709	0.00017117
-3.34315	-590.955	0.000167848
-3.31442	-589.599	0.000216582
-3.28146	-587.881	0.000167206
-3.24796	-586.417	0.000172719
-3.216	-585.043	0.000162355
-3.18476	-583.277	0.000192635
-3.15127	-581.705	0.000155899
-3.11803	-580.323	0.000142664
-3.08829	-578.529	0.000126543
-3.05104	-576.98	0.000147958
-3.02282	-575.261	0.00015349
-2.9896	-573.736	0.000117249
-2.95413	-572.01	0.000173573
-2.92139	-570.331	0.000172231
-2.89266	-568.547	0.000168727
-2.8617	-566.694	0.00016223
-2.82848	-565.476	0.000147394
-2.79649	-563.693	0.000159706
-2.76726	-561.961	0.000155832
-2.73279	-560.049	0.000202289
-2.70031	-558.294	0.000199249
-2.66503	-556.384	0.000210835
-2.6303	-554.464	0.00020053
-2.59881	-552.883	0.000154114
-2.56685	-550.804	0.000184789
-2.53485	-549.176	0.000161725
-2.50113	-547.221	0.000143603
-2.47015	-545.665	0.000167268
-2.44391	-544.009	0.00016793
-2.41493	-542.079	0.000171584
-2.38671	-540.533	0.000148848
-2.35746	-538.829	0.000138395
-2.32701	-536.68	0.000147218
-2.29776	-535.342	0.000137699
-2.26877	-533.73	0.000143161
-2.24178	-531.692	0.000127336
-2.21053	-529.811	0.000102511
-2.18354	-528.15	0.000108511
-2.15282	-526.601	0.00012987
-2.12408	-524.518	0.000137197
-2.09113	-522.779	0.000134098
-2.06587	-520.816	0.000130875
-2.0394	-519.252	0.000114348
-2.01067	-517.291	0.000133653
-1.98219	-515.633	0.000138871
-1.9542	-513.82	0.00011705
-1.92474	-511.754	0.000124051
-1.89575	-509.843	0.000120616
-1.86876	-508.108	0.000114165
-1.83903	-506.334	0.000120994
-1.81131	-504.179	0.000129549
-1.78405	-502.493	9.31638e-05
-1.75283	-500.357	0.000108691
-1.72411	-498.427	0.000133304
-1.69236	-496.102	0.000119134
-1.66412	-494.392	0.000111716
-1.63715	-492.424	9.32445e-05
-1.60291	-490.126	9.36491e-05
-1.57717	-488.178	0.000105363
-1.5487	-486.369	0.000109315
-1.52071	-484.311	0.000115555
-1.49324	-482.465	0.00011646
-1.462	-480.43	0.000102491
-1.43678	-478.048	0.000101157
-1.41003	-476.262	8.59635e-05
-1.38157	-474.263	9.44433e-05
-1.35258	-472.114	0.000101937
-1.3258	-470.127	0.0001104
-1.29085	-467.861	7.84932e-05
-1.26481	-465.691	9.14904e-05
-1.23685	-463.364	0.000124712
-1.20763	-461.258	0.000114435
-1.17939	-459.371	8.13098e-05
-1.15113	-457.051	9.50986e-05
-1.12392	-455.147	9.80791e-05
-1.09548	-452.893	0.00010812
-1.06544	-450.587	8.49899e-05
-1.03746	-448.153	8.04708e-05
-1.0055	-445.836	9.60492e-05
-0.977032	-443.603	9.01195e-05
-0.949272	-441.601	7.96919e-05
-0.920018	-439.157	8.5667e-05
-0.887745	-436.826	7.22471e-05
-0.860509	-434.53	9.36523e-05
-0.83174	-431.986	6.64282e-05
-0.802282	-429.681	7.51083e-05
-0.772801	-427.119	7.47015e-05
-0.742575	-424.73	8.48971e-05
-0.715045	-422.625	7.27071e-05
-0.682353	-420.168	8.25735e-05
-0.654617	-417.651	7.18615e-05
-0.625615	-415.138	7.50169e-05
-0.597618	-412.662	7.22348e-05
-0.569623	-410.613	5.75751e-05
-0.54017	-408.035	7.05181e-05
-0.511685	-405.466	5.7099e-05
-0.483419	-402.859	4.60261e-05
-0.454201	-400.248	7.34411e-05
-0.42543	-398.113	6.27446e-05
-0.39645	-395.492	5.92763e-05
-0.367947	-392.802	4.59759e-05
-0.338208	-390.119	4.00023e-05
-0.308733	-387.455	6.21984e-05
-0.280984	-385.198	5.44645e-05
-0.251749	-382.468	4.6036e-05
-0.222481	-379.673	4.77779e-05
-0.194756	-377.394	5.45648e-05
-0.165516	-374.586	4.81964e-05
-0.136005	-371.74	6.10317e-05
-0.109501	-368.882	5.55718e-05
-0.0810186	-366.405	5.64055e-05
-0.0482572	-363.596	5.44641e-05
-0.0230092	-360.682	5.09877e-05
0.00696482	-358.048	6.51114e-05
0.0321791	-355.538	5.74013e-05
0.0611348	-352.498	4.7642e-05
0.0915541	-349.33	5.02988e-05
0.117717	-346.832	4.89686e-05
0.146885	-343.766	3.97026e-05
0.175569	-340.647	5.15906e-05
0.201985	-338.118	5.33967e-05
0.231587	-334.95	5.29972e-05
0.262804	-331.826	5.51987e-05
0.289756	-329.193	6.58257e-05
0.318783	-325.993	3.81351e-05
0.345739	-322.821	4.84607e-05
0.376801	-319.543	5.45627e-05
0.406311	-316.179	5.66033e-05
0.435843	-312.914	5.21648e-05
0.466104	-309.53	5.62985e-05
0.49186	-306.665	5.18386e-05
0.519853	-303.2	5.06427e-05
0.548593	-300.291	7.11759e-05
0.577059	-296.686	5.85885e-05
0.60556	-293.151	7.15402e-05
0.631291	-290.141	5.78914e-05
0.65905	-286.424	7.27799e-05
0.689777	-282.61	7.15007e-05
0.717758	-279.378	6.10054e-05
0.745789	-275.568	6.50038e-05
0.776251	-271.544	5.57258e-05
0.802463	-268.106	7.06833e-05
0.830941	-264.089	7.76828e-05
0.859691	-259.749	7.43341e-05
0.889943	-255.471	6.54531e-05
0.917699	-251.777	7.78799e-05
0.946218	-247.27	8.74863e-05
0.974214	-242.645	6.20626e-05
1.0059	-237.788	7.81863e-05
1.03192	-233.744	6.79763e-05
1.06213	-228.705	7.89941e-05
1.09338	-223.543	8.23033e-05
1.12135	-218.322	8.30524e-05
1.15033	-212.869	7.90322e-05
1.17756	-208.24	8.68394e-05
1.20608	-202.457	8.93738e-05
1.23655	-196.59	8.94734e-05
1.26304	-191.277	9.75736e-05
1.293	-184.006	8.14861e-05
1.32149	-178.608	9.98346e-05
1.35198	-171.942	0.000112456
1.37899	-164.998	0.000104287
1.40973	-157.867	0.000102249
1.43872	-150.462	0.000118245
1.46867	-142.762	9.8972e-05
1.49568	-136.273	0.000105412
1.5279	-128.308	0.000108585
1.55613	-119.872	0.000108523
1.58562	-111.306	0.000104933
1.61511	-102.463	0.00010226
1.64109	-94.7627	0.000111526
1.66907	-85.3062	9.73963e-05
1.69854	-75.8305	0.000109294
1.72579	-67.5094	0.000130434
1.75402	-57.6356	0.000129783
1.782	-48.8786	0.00014392
1.80975	-38.269	0.000120286
1.83749	-27.2851	0.000139199
1.86473	-18.0743	0.000149831
1.89572	-6.7461	0.000140528
1.92419	4.62762	0.000125792
1.95117	14.6099	0.000121753
1.98066	26.5516	0.000138705
2.00992	38.5352	0.000132568
2.0416	50.8583	0.00014699
2.07336	63.0529	0.00013225
2.10058	75.8848	0.000151721
2.13132	88.3339	0.000153916
2.15931	101.51	0.000141474
2.18578	111.928	0.000163547
2.21625	124.893	0.000166378
2.24405	137.832	0.000149671
2.27377	150.892	0.000143089
2.30526	163.91	0.000174245
2.33122	174.581	0.000136834
2.36395	187.368	0.000197956
2.38992	200.018	0.000149734
2.41641	210.652	0.000174735
2.44591	223.496	0.0001428
2.47388	235.711	0.000160573
2.50064	245.922	0.000150596
2.53137	260.251	0.000170612
2.56009	270.311	0.000153195
2.59029	281.995	0.000175476
2.61933	293.614	0.000198386
2.64776	304.774	0.000154362
2.67605	314.197	0.000191733
2.70359	325.24	0.000172937
2.7318	334.002	0.000195599
2.7603	344.294	0.000150087
2.78603	353.23	0.000154371
2.81775	362.979	0.000162429
2.84299	372.65	0.000181552
2.86898	380.583	0.000161162
2.89848	389.61	0.000144838
2.92819	398.751	0.00016893
2.95618	405.841	0.000206945
2.98465	414.474	0.000185306
3.01211	422.687	0.000176035
3.04013	429.488	0.000153276
3.0686	436.815	0.000186189
3.09485	443.52	0.000172937
3.12209	450.984	0.00017986
3.1496	456.684	0.000210127
3.17835	463.439	0.000147556
3.20608	470.169	0.000183304
3.23378	475.56	0.000163586
3.26651	481.692	0.000160171
3.29226	487.661	0.000174877
3.31997	492.071	0.000185832
3.346	497.927	0.000193409
3.37423	502.605	0.000203832
3.40093	507.85	0.000190002
3.42943	512.366	0.000181781
3.45593	516.334	0.000211405
3.48313	521.171	0.000162912
3.51289	525.909	0.000189235
3.53935	529.565	0.00016515
3.57059	534.191	0.00017578
3.59686	538.239	0.000207666
3.624825	541.628	0.000201721
3.65331	545.358	0.000186097
3.6823	549.196	0.000206341
3.71053	552.502	0.000193171
3.73928	556.119	0.000175462
3.76798	559.553	0.000221678
3.79397	562.134	0.000164486
3.82297	565.28	0.000217959
3.85171	568.873	0.000219143
3.87968	571.343	0.00019717
3.91191	574.227	0.000192335
3.93464	576.675	0.000219131
3.96313	579.354	0.000167508
3.99187	582.165	0.000216269
4.01888	584.511	0.000212139
4.0476	587.178	0.000169497
4.07485	589.19	0.000240705
4.10709	591.589	0.000201489
4.13331	594.251	0.000230603
4.15906	595.9	0.000202317
4.18628	598.329	0.00018772
4.22129	600.214	0.000199469
4.24473	602.096	0.000197904
4.27376	604.338	0.000213159
4.30497	606.231	0.000195023
4.33591	608.054	0.000203815
4.36212	610.645	0.000207684
4.39118	611.985	0.000187724
4.41964	613.698	0.000193098
4.44714	615.613	0.000193903
4.47342	617.248	0.000214742
4.50267	618.673	0.000202395
4.53139	620.221	0.000255509
4.55711	621.238	0.000255848
4.58386	623.001	0.000199606
4.61636	624.96	0.000191538
4.64286	625.693	0.000248808
4.66959	627.466	0.000248504
4.69707	629.011	0.00022562
4.729275	630.462	0.000238559
4.76028	632.11	0.000220736
4.78622	633.016	0.000304435
4.81423	634.653	0.000215031
4.84418	635.631	0.000255543
4.8737	637.376	0.000201843
4.90095	638.207	0.000240671
4.92995	639.646	0.000186865
4.95821	640.696	0.000308158
4.98566	641.744	0.000259948
5.01264	642.621	0.000235377
5.04088	643.721	0.000255069
5.07011	644.772	0.000251218
5.09785	645.829	0.000252843
5.12983	646.894	0.000209917
5.1558	647.901	0.000244583
5.18457	649.166	0.000263728
5.21281	649.749	0.000237662
5.241	651.031	0.000203552
5.26971	651.604	0.000265644
5.29749	652.713	0.000245974
5.32522	653.62	0.000176066
5.3542	654.319	0.000239294
5.38095	655.264	0.000278154
5.40894	656.308	0.000263809
5.43867	657.163	0.000296627
5.46637	658.2	0.000269878
5.49514	658.678	0.000297991
5.52313	659.229	0.000270935
5.5506	660.273	0.000264849
5.57858	661.349	0.000207634
5.6108	662.057	0.000302976
5.63858	662.353	0.000234482
5.66656	663.413	0.000212846
5.69352	664.191	0.000282626
5.72099	664.699	0.000256836
5.75022	665.331	0.000249965
5.77923	665.927	0.000217895
5.80524	666.514	0.000220737
5.83548	667.363	0.000263141
5.86247	667.775	0.000221816
5.89247	668.84	0.000296181
5.91966	669.377	0.000274825
5.94717	670.207	0.000188255
5.97639	670.669	0.000278759
6.00264	671.403	0.000294927
6.03235	671.983	0.000290893
6.06287	672.518	0.000236326
6.09185	673.372	0.000295264
6.12083	673.514	0.000284983
6.1493	674.759	0.000271589
6.17803	675.291	0.000273273
6.20604	675.658	0.000324106
6.23454	676.521	0.000248953
6.2623	676.444	0.000299348
6.29356	677.464	0.000237022
6.31927	677.876	0.000242479
6.34798	678.238	0.000269123
6.37696	678.892	0.000239582
6.40526	679.008	0.000247603
6.43322	679.896	0.000236529
6.46019	680.353	0.000268261
6.48967	680.917	0.000274159
6.51742	681.11	0.00024886
6.54516	681.712	0.000284296
6.57989	682.443	0.000276988
6.60737	682.192	0.000255856
6.63386	682.588	0.000268053
6.66335	683.331	0.000257983
6.6946	683.528	0.000186875
6.72209	684.267	0.000299708
6.75004	684.933	0.000300709
6.77605	685.068	0.000238378
6.80653	685.194	0.000275999
6.83528	685.663	0.000264525
6.86578	686.533	0.00026279
6.89426	687.031	0.000285998
6.92122	686.56	0.000307309
6.95294	688.1	0.000304347
6.97894	688.231	0.000258838
7.00667	688.085	0.000329949
7.0354	688.585	0.000207859
7.06264	689.393	0.000312147
7.0889	689.294	0.000329311
7.12038	689.998	0.000318917
7.14787	689.945	0.000277616
7.17508	690.479	0.000308514
7.20361	690.651	0.000286038
7.22909	691.102	0.000366534
7.2573	691.561	0.000339844
7.28454	691.503	0.00028598
7.3133	691.535	0.000258328
7.34653	691.711	0.000299826
7.37101	692.059	0.00030259
7.39949	692.988	0.000240297
7.42825	692.644	0.000354567
7.45525	692.99	0.000280349
7.4887	693.787	0.000246261
7.51744	693.553	0.00030937
7.5462	694.275	0.000406985
7.5797	694.416	0.000336319
7.60446	694.464	0.000305537
7.633425	695.053	0.00033906
7.66294	695.374	0.000316616
7.69091	695.335	0.000310331
7.72465	696.002	0.000338424
7.75311	695.968	0.00032447
7.78262	696.166	0.000293333
7.81385	696.336	0.000307485
7.83857	696.323	0.00030779
7.86755	696.959	0.000276925
7.89383	697.267	0.0002684
7.92677	697.377	0.000371621
7.95376	697.067	0.000314795
7.98302	697.855	0.000328016
8.011	697.428	0.000290209
8.04205	697.734	0.000349191
8.06853	697.984	0.000325725
8.09955	698.603	0.000310796
8.13223	698.417	0.000296153
8.15974	698.397	0.000283112
8.18821	698.6	0.000323758
8.21494	698.402	0.00029644
8.24445	698.763	0.000296941
8.27416	699.188	0.000343481
8.30292	698.697	0.000336109
8.33366	699.081	0.000259708
8.36212	699.676	0.000237295
8.38833	699.63	0.000381638
8.41861	699.814	0.000320496
8.44489	699.742	0.000318294
8.47461	699.679	0.000323021
8.49887	699.813	0.000341532
8.52408	700.145	0.000269751
8.55259	699.833	0.000330425
8.58108	700.076	0.00037266
8.60805	700.204	0.000370485
8.63679	700.432	0.000315113
8.66478	700.973	0.000343121
8.69177	700.594	0.000360272
8.72047	699.961	0.000377864
8.75051	701.186	0.000306617
8.77652	700.839	0.000327163
8.80447	700.36	0.000339379
8.82966	700.594	0.000361385
8.86092	700.877	0.00036665
8.88692	701.362	0.000316948
8.91343	700.639	0.000267109
8.94141	701.027	0.000350981
8.97067	700.983	0.000290091
8.99996	701.157	0.000284129