File: data/monolayers/nanoparticles/Ac_CoFe_C_AH/vsm/AH11_LangevinSAXSscaled.xye
#Executed at: 2018-10-26 14:51:30.7514
#Loaded File	 = ./AH11_HYST_100OE_300K.DAT
#particle info	 = Superball Model, r = 46.9421 A, p = 2.65743
#fit report	 = [[Fit Statistics]]
#    # fitting method   = leastsq
#    # function evals   = 73
#    # data points      = 1746
#    # variables        = 3
#    chi-square         = 4.5740e+09
#    reduced chi-square = 2624216.60
#    Akaike info crit   = 25809.4
#    Bayesian info crit = 25825.8
#[[Variables]]
#    Ms:   2005.72 +/- 3.80137 (0.19%) (init = 1)
#    mu:   22105.1 +/- 156.881 (0.71%) (init = 10000)
#    chi: -15.0141 +/- 3.04513 (20.28%) (init = 0)
#    T:    300 (fixed)
#[[Correlations]] (unreported correlations are < 0.100)
#    C(Ms, chi) = -0.900
#    C(Ms, mu)  = -0.636
#    C(mu, chi) =  0.523
#Ms Should	 = 281.859 kA/m
#Rescale Factor	 = 0.140528
#[[Data]]
#B/T	M/kAm-1	sM/kAm-1	M_raw/memu	sM_raw/memu
0.0124541	105.426	0.00320739	750.215	0.0228239
0.00556588	7.7103	0.000943148	54.8666	0.00671147
0.0163327	77.5871	0.00183694	552.111	0.0130717
0.0275217	116.78	0.00244625	831.012	0.0174076
0.0382584	145.334	0.00265745	1034.2	0.0189104
0.0474835	167.802	0.00262049	1194.09	0.0186475
0.0589611	183.563	0.00349332	1306.24	0.0248585
0.0689492	196.668	0.00378965	1399.5	0.0269673
0.0799147	206.121	0.0034409	1466.76	0.0244855
0.0916369	218.324	0.00402128	1553.6	0.0286155
0.102625	224.143	0.00398634	1595.01	0.0283669
0.114823	227.138	0.0040648	1616.32	0.0289252
0.124786	236.146	0.00539731	1680.42	0.0384074
0.134753	238.633	0.00529335	1698.12	0.0376676
0.146705	241.33	0.00409366	1717.31	0.0291306
0.157943	241.095	0.00435422	1715.64	0.0309847
0.169161	246.037	0.00491108	1750.8	0.0349473
0.180632	248.21	0.00409008	1766.27	0.0291051
0.192608	252.543	0.00580237	1797.1	0.0412898
0.203334	254.183	0.00489111	1808.77	0.0348052
0.214506	254.233	0.00413851	1809.13	0.0294497
0.224267	254.081	0.00439132	1808.05	0.0312488
0.235481	260.487	0.00504773	1853.63	0.0359198
0.247429	258.892	0.00587433	1842.28	0.0418019
0.258657	259.435	0.00415493	1846.14	0.0295666
0.270377	259.798	0.00420419	1848.73	0.0299171
0.281827	262.256	0.00382618	1866.22	0.0272272
0.293046	263.809	0.00478368	1877.27	0.0340408
0.303774	263.387	0.00455808	1874.27	0.0324354
0.313738	262.287	0.004819	1866.44	0.0342921
0.324956	260.953	0.00500837	1856.95	0.0356397
0.335903	263.103	0.0051866	1872.25	0.0369079
0.346641	265.15	0.00479251	1886.81	0.0341036
0.357624	266.209	0.00530199	1894.35	0.0377291
0.368059	267.64	0.00499171	1904.53	0.0355211
0.377547	262.755	0.00475243	1869.77	0.0338184
0.388516	264.422	0.00560707	1881.63	0.0399
0.401498	268.605	0.00523177	1911.4	0.0372294
0.412453	267.66	0.00625162	1904.67	0.0444867
0.423198	265.493	0.00547479	1889.26	0.0389587
0.433944	267.691	0.00551328	1904.89	0.0392326
0.448909	270.392	0.00501775	1924.11	0.0357065
0.458122	266.947	0.00564392	1899.6	0.0401622
0.468887	272.156	0.00456296	1936.66	0.0324701
0.479103	269.929	0.00586315	1920.82	0.0417223
0.49058	272.806	0.00567255	1941.3	0.040366
0.503031	269.088	0.00541566	1914.84	0.038538
0.513546	272.323	0.00490651	1937.85	0.0349148
0.523985	274.042	0.00450369	1950.09	0.0320484
0.53548	273.546	0.00513207	1946.56	0.0365199
0.546961	274.349	0.00480584	1952.27	0.0341984
0.558454	270.369	0.00509902	1923.95	0.0362847
0.569937	270.956	0.00475286	1928.13	0.0338215
0.581163	276.373	0.00596739	1966.68	0.0424641
0.591923	274.39	0.00486889	1952.56	0.0346471
0.603132	273.767	0.00633462	1948.13	0.0450773
0.614658	273.652	0.00563582	1947.32	0.0401046
0.630128	270.395	0.00524754	1924.14	0.0373416
0.639145	268.589	0.00400426	1911.29	0.0284944
0.655345	273.807	0.00527138	1948.42	0.0375113
0.664102	276.82	0.00517389	1969.86	0.0368175
0.678562	274.404	0.00638939	1952.66	0.0454671
0.68758	272.216	0.00471429	1937.1	0.033547
0.698581	276.872	0.00533235	1970.23	0.0379451
0.709321	274.52	0.00503939	1953.49	0.0358604
0.722322	276.242	0.00586933	1965.74	0.0417663
0.733286	271.797	0.00550029	1934.12	0.0391402
0.745067	274.273	0.00679125	1951.73	0.0483267
0.761015	275.549	0.00608334	1960.81	0.0432892
0.770036	277.07	0.00501252	1971.63	0.0356692
0.780737	271.843	0.00564302	1934.44	0.0401559
0.792268	276.902	0.00505137	1970.44	0.0359456
0.803982	276.611	0.00515622	1968.37	0.0366918
0.815197	278.353	0.00584377	1980.77	0.0415844
0.825727	279.411	0.00431471	1988.3	0.0307036
0.836976	269.366	0.00594365	1916.81	0.0422951
0.848969	275.999	0.00464047	1964.02	0.0330217
0.861487	275.215	0.00516449	1958.44	0.0367507
0.872977	277.861	0.00619075	1977.26	0.0440535
0.884709	277.612	0.0056868	1975.49	0.0404674
0.895507	280.21	0.00587819	1993.98	0.0418293
0.906016	272.449	0.00499142	1938.75	0.0355191
0.917772	274.4	0.00428767	1952.64	0.0305111
0.928494	277.251	0.00449044	1972.92	0.0319541
0.94025	275.796	0.00525595	1962.57	0.0374015
0.955479	279.964	0.00567279	1992.23	0.0403677
0.963976	277.508	0.00600573	1974.75	0.0427369
0.975465	278.064	0.00543643	1978.71	0.0386858
0.986233	277.193	0.00478941	1972.51	0.0340816
0.999472	276.227	0.00601556	1965.64	0.0428068
1.01018	275.069	0.00519432	1957.4	0.0369629
1.02117	275.994	0.00549665	1963.98	0.0391143
1.0327	276.007	0.00538242	1964.07	0.0383014
1.0429	277.968	0.0054878	1978.03	0.0390513
1.05442	278.083	0.00573639	1978.85	0.0408203
1.07013	278.978	0.00652607	1985.21	0.0464396
1.07892	279.587	0.00593295	1989.55	0.042219
1.09089	277.088	0.00582606	1971.77	0.0414584
1.10236	278.004	0.00523247	1978.28	0.0372344
1.1139	272.9	0.00565045	1941.96	0.0402087
1.12488	278.608	0.00498847	1982.58	0.035498
1.13561	278.3	0.00550912	1980.39	0.039203
1.1461	277.76	0.004959	1976.55	0.0352884
1.15711	279.508	0.00565822	1988.99	0.040264
1.16884	278.181	0.00547674	1979.54	0.0389726
1.17985	279.048	0.00548379	1985.71	0.0390228
1.18986	275.406	0.00575027	1959.79	0.0409191
1.20109	279.53	0.00547334	1989.14	0.0389484
1.21232	274.215	0.00510537	1951.32	0.0363299
1.22284	277.899	0.00551448	1977.53	0.0392412
1.23506	275.123	0.00491697	1957.78	0.0349892
1.24584	275.815	0.00505518	1962.7	0.0359728
1.25579	279.642	0.00573703	1989.94	0.0408248
1.26828	276.675	0.00533203	1968.82	0.0379429
1.28005	278.44	0.0049408	1981.38	0.0351589
1.29054	277.596	0.00678257	1975.38	0.0482649
1.30254	277.354	0.00646451	1973.66	0.0460016
1.31401	274.236	0.00521135	1951.47	0.0370841
1.32528	275.094	0.00588005	1957.58	0.0418426
1.33679	275.292	0.00562401	1958.98	0.0400206
1.34753	276.979	0.00533546	1970.99	0.0379673
1.35826	276.034	0.00489179	1964.27	0.0348101
1.37301	277.333	0.00612158	1973.51	0.0435613
1.38351	276.006	0.0061642	1964.06	0.0438646
1.39475	279.086	0.00565762	1985.98	0.0402597
1.40523	277.616	0.0068043	1975.52	0.0484196
1.4165	278.445	0.0061942	1981.42	0.0440781
1.4265	279.268	0.00551174	1987.27	0.0392217
1.43725	278.131	0.0055396	1979.19	0.0394199
1.44871	277.754	0.00510795	1976.5	0.0363483
1.4617	278.187	0.0052842	1979.58	0.0376025
1.47322	277.433	0.00664992	1974.22	0.047321
1.48919	282.079	0.00595652	2007.28	0.0423868
1.49771	275.459	0.00548626	1960.17	0.0390404
1.5087	271.718	0.00454447	1933.55	0.0323386
1.51966	279.174	0.00562198	1986.61	0.0400061
1.53095	275.287	0.00568351	1958.95	0.040444
1.54367	279.8	0.0055687	1991.07	0.039627
1.55439	278.735	0.00618077	1983.49	0.0439825
1.56615	276.57	0.00610592	1968.08	0.0434498
1.57638	275.993	0.00620069	1963.97	0.0441242
1.58939	277.74	0.0053519	1976.4	0.0380843
1.59991	273.419	0.00573409	1945.66	0.0408039
1.61113	277.802	0.00573662	1976.84	0.0408219
1.62287	275.059	0.00599703	1957.33	0.042675
1.63338	273.342	0.00638476	1945.1	0.0454341
1.64438	270.342	0.00581196	1923.76	0.041358
1.6551	275.446	0.00593745	1960.08	0.0422511
1.66484	276.626	0.00655348	1968.48	0.0466347
1.67559	276.934	0.00598832	1970.67	0.042613
1.69106	275.582	0.00663624	1961.05	0.0472236
1.69933	279.41	0.00566217	1988.29	0.0402921
1.7123	275.236	0.00595932	1958.58	0.0424066
1.72432	273.026	0.00611515	1942.86	0.0435156
1.7358	275.2	0.00620119	1958.33	0.0441278
1.74656	278.489	0.00653551	1981.74	0.0465068
1.75881	274.358	0.00601981	1952.34	0.0428371
1.77054	275.404	0.0056799	1959.78	0.0404183
1.78152	276.114	0.00584752	1964.83	0.0416111
1.79326	281.088	0.00508834	2000.23	0.0362087
1.80404	273.245	0.00569626	1944.42	0.0405347
1.81526	277.358	0.00533063	1973.69	0.0379329
1.82602	277.247	0.00598088	1972.89	0.0425601
1.83701	275.176	0.00569578	1958.16	0.0405313
1.84875	271.904	0.00563992	1934.87	0.0401338
1.85949	279.932	0.00697489	1992	0.0496335
1.87124	272.951	0.00667965	1942.33	0.0475325
1.88248	275.879	0.00636123	1963.16	0.0452667
1.89345	274.895	0.00577994	1956.16	0.0411302
1.90472	274.267	0.00511492	1951.69	0.0363979
1.91574	273.866	0.00532066	1948.83	0.037862
1.92845	274.804	0.00600562	1955.51	0.0427361
1.94046	274.273	0.00559151	1951.74	0.0397893
1.9512	273.765	0.00592643	1948.12	0.0421726
1.96217	275.026	0.00459376	1957.09	0.0326893
1.97368	275.732	0.00654211	1962.12	0.0465538
1.98442	277.957	0.00615084	1977.95	0.0437695
1.99992	276.492	0.00571274	1967.53	0.040652
1.98892	273.372	0.00522116	1945.32	0.0371539
1.97318	271.438	0.00622204	1931.56	0.0442762
1.96419	272.73	0.00526219	1940.75	0.0374458
1.95268	271.904	0.00544498	1934.88	0.0387466
1.94069	272.666	0.00524302	1940.3	0.0373094
1.92845	272.704	0.00500481	1940.57	0.0356143
1.91745	273.746	0.00664057	1947.98	0.0472545
1.9057	276.485	0.00595635	1967.47	0.0423855
1.89522	274.132	0.00601802	1950.73	0.0428243
1.88397	275.411	0.00488231	1959.83	0.0347426
1.87026	273.275	0.00616954	1944.63	0.0439026
1.85902	271.073	0.00636134	1928.96	0.0452675
1.84748	274.119	0.00530278	1950.64	0.0377347
1.83525	275.295	0.00594726	1959.01	0.0423208
1.8243	270.482	0.0056227	1924.76	0.0400113
1.81279	274.233	0.00442491	1951.45	0.0314877
1.80079	272.34	0.00586182	1937.98	0.0417128
1.78878	276.085	0.00482096	1964.62	0.0343061
1.77531	275.59	0.00542216	1961.11	0.0385842
1.76429	272.584	0.00573351	1939.71	0.0407998
1.75382	274.532	0.00517217	1953.58	0.0368052
1.74255	274.463	0.00505807	1953.09	0.0359934
1.73007	277.307	0.0064061	1973.32	0.0455859
1.71882	277.762	0.00648454	1976.56	0.0461441
1.70655	273.858	0.00517652	1948.78	0.0368362
1.69562	273.722	0.00540678	1947.81	0.0384748
1.68487	273.998	0.00594493	1949.77	0.0423043
1.67287	270.52	0.00439809	1925.03	0.0312969
1.66137	272.521	0.00573921	1939.26	0.0408404
1.65012	275.389	0.00592132	1959.67	0.0421362
1.63512	279.68	0.00649081	1990.21	0.0461887
1.62662	275.448	0.00698753	1960.09	0.0497234
1.61585	274.888	0.00540031	1956.11	0.0384287
1.60514	273.594	0.00558777	1946.9	0.0397627
1.59466	274.632	0.0055679	1954.29	0.0396213
1.5829	278.042	0.0053854	1978.55	0.0383227
1.56591	276.388	0.00493934	1966.78	0.0351485
1.55542	273.693	0.00551545	1947.61	0.0392481
1.54394	277.465	0.0053565	1974.45	0.038117
1.53173	275.847	0.0063937	1962.93	0.0454977
1.52068	273.906	0.00616387	1949.12	0.0438622
1.50973	273.84	0.00599422	1948.65	0.042655
1.49844	276.518	0.00513936	1967.71	0.0365718
1.48672	276.684	0.00561297	1968.89	0.039942
1.47521	274.9	0.00395142	1956.2	0.0281184
1.4587	278.656	0.00546579	1982.92	0.0388947
1.44997	274.742	0.00490137	1955.07	0.0348783
1.43903	278.141	0.00530931	1979.26	0.0377812
1.4285	274.604	0.00622411	1954.09	0.0442909
1.41152	273.341	0.00616791	1945.1	0.043891
1.40327	275.176	0.0069113	1958.16	0.0491809
1.39153	273.517	0.00613197	1946.36	0.0436352
1.38105	279.225	0.00619988	1986.97	0.0441185
1.37079	276.738	0.00564874	1969.28	0.0401966
1.35682	275.317	0.00525841	1959.16	0.037419
1.34103	276.013	0.00531779	1964.12	0.0378415
1.33155	275.828	0.00510489	1962.8	0.0363265
1.32054	276.45	0.00447844	1967.22	0.0318687
1.30907	277.204	0.00605529	1972.59	0.0430896
1.29731	272.411	0.00514433	1938.48	0.0366071
1.28581	278.695	0.00488837	1983.2	0.0347858
1.27359	276.457	0.00540116	1967.28	0.0384348
1.26383	272.875	0.00355627	1941.78	0.0253065
1.2513	276.149	0.00472429	1965.08	0.0336182
1.24035	274.396	0.00474969	1952.61	0.0337989
1.23009	276.513	0.00696255	1967.67	0.0495457
1.21936	275.197	0.00456042	1958.31	0.032452
1.20785	276.203	0.00589043	1965.46	0.0419164
1.19615	276.919	0.00533954	1970.56	0.0379963
1.18439	274.229	0.00421885	1951.42	0.0300214
1.17288	274.98	0.00539401	1956.76	0.0383839
1.1616	278.544	0.00518982	1982.12	0.0369309
1.1494	279.326	0.00511001	1987.69	0.0363629
1.13765	278.13	0.00464051	1979.18	0.033022
1.12517	277.727	0.00529132	1976.31	0.0376532
1.1149	273.483	0.00471065	1946.11	0.0335211
1.10345	272.182	0.00581814	1936.85	0.041402
1.0867	275.754	0.00477884	1962.27	0.0340064
1.07869	278.173	0.00624242	1979.49	0.0444212
1.06666	275.133	0.00564846	1957.85	0.0401945
1.05642	274.216	0.00496172	1951.33	0.0353077
1.04294	272.16	0.00449956	1936.7	0.032019
1.03146	273.705	0.00598006	1947.69	0.0425543
1.02048	277.742	0.00579838	1976.42	0.0412614
1.00895	278.13	0.00506732	1979.18	0.0360591
0.99825	275.694	0.00560658	1961.85	0.0398965
0.986703	276.413	0.00585786	1966.96	0.0416847
0.975739	274.985	0.00606393	1956.8	0.0431511
0.966006	274.037	0.00460449	1950.05	0.0327657
0.953266	278.34	0.00550117	1980.67	0.0391465
0.941038	274.127	0.00562835	1950.69	0.0400515
0.92955	275.586	0.0045458	1961.07	0.032348
0.91877	272.319	0.00487815	1937.83	0.034713
0.908044	279.314	0.00513911	1987.61	0.03657
0.897087	273.739	0.00572662	1947.93	0.0407507
0.885218	276.306	0.00509545	1966.2	0.0362594
0.874517	278	0.00508211	1978.26	0.0361644
0.86249	274.288	0.00456195	1951.84	0.0324629
0.850744	273.442	0.00570745	1945.82	0.0406144
0.835979	278.182	0.00602755	1979.55	0.0428921
0.826273	271.115	0.00426018	1929.26	0.0303155
0.815256	274.848	0.00642797	1955.83	0.0457416
0.804008	274.786	0.00561065	1955.38	0.0399255
0.787014	273.49	0.0041596	1946.16	0.0295998
0.777609	276.879	0.00524043	1970.28	0.037291
0.765564	275.35	0.00472366	1959.4	0.0336137
0.75532	277.496	0.00492998	1974.67	0.0350819
0.744591	273.2	0.00599973	1944.1	0.0426942
0.730829	276.76	0.00688415	1969.43	0.0489877
0.719095	272.014	0.00513019	1935.66	0.0365065
0.706591	275.469	0.00534765	1960.24	0.038054
0.696884	273.13	0.00545846	1943.6	0.0388425
0.686095	273.381	0.00616892	1945.38	0.0438982
0.675354	271.25	0.00561873	1930.22	0.039983
0.663611	274.84	0.0049742	1955.77	0.0353965
0.65013	272.462	0.00467468	1938.85	0.0332651
0.633885	268.506	0.00452032	1910.69	0.0321667
0.626145	273.122	0.00560345	1943.54	0.0398743
0.615166	273.52	0.0049603	1946.37	0.0352976
0.604881	273.773	0.00486792	1948.18	0.0346403
0.593638	270.469	0.0055635	1924.66	0.03959
0.582412	272.739	0.00522951	1940.82	0.0372133
0.571413	271.137	0.00441995	1929.42	0.0314525
0.560177	271.015	0.00501661	1928.55	0.0356983
0.549435	272.863	0.00518914	1941.7	0.036926
0.538242	271.884	0.00510985	1934.73	0.0363618
0.525954	271.935	0.00520823	1935.09	0.0370619
0.515214	269.398	0.00448035	1917.04	0.0318823
0.503975	267.356	0.00439645	1902.51	0.0312852
0.492477	271.337	0.0055568	1930.84	0.0395423
0.480717	272.711	0.00450536	1940.62	0.0320603
0.470244	267.787	0.00487836	1905.58	0.0347145
0.459726	269.464	0.00611305	1917.51	0.0435006
0.449234	266.171	0.00555784	1894.08	0.0395497
0.437929	266.094	0.00522791	1893.53	0.0372019
0.421982	268.819	0.00522615	1912.92	0.0371894
0.411683	267.761	0.00495844	1905.39	0.0352844
0.400697	269.148	0.00501906	1915.26	0.0357158
0.389744	267.205	0.00492722	1901.44	0.0350622
0.378469	267.485	0.00511324	1903.43	0.036386
0.367472	267.543	0.00493179	1903.84	0.0350947
0.357226	267.277	0.00431573	1901.95	0.0307108
0.346201	265.155	0.00566177	1886.85	0.0402893
0.33528	266.536	0.00525014	1896.68	0.0373601
0.324023	263.61	0.00543274	1875.85	0.0386595
0.31226	262.104	0.00427236	1865.14	0.0304022
0.30153	259.821	0.00518908	1848.89	0.0369256
0.289543	261.775	0.00424176	1862.79	0.0301845
0.277749	258.94	0.00555235	1842.62	0.0395106
0.266784	261.311	0.00472754	1859.49	0.0336413
0.254265	261.006	0.00477425	1857.33	0.0339737
0.242516	257.373	0.00470292	1831.47	0.0334661
0.230521	253.388	0.0038525	1803.11	0.0274145
0.215555	256.24	0.00548188	1823.41	0.0390092
0.207085	255.01	0.00407917	1814.66	0.0290275
0.195798	248.837	0.00412715	1770.73	0.0293689
0.185588	253.348	0.00412891	1802.83	0.0293814
0.172545	242.856	0.00332617	1728.17	0.0236691
0.162053	242.787	0.00412999	1727.68	0.0293891
0.151545	237.669	0.00532305	1691.25	0.0378789
0.14077	242.824	0.0039976	1727.94	0.028447
0.130291	234.977	0.00462075	1672.1	0.0328814
0.115545	229.634	0.00384667	1634.08	0.027373
0.106807	227.184	0.00327223	1616.65	0.0232853
0.0958107	218.474	0.00441335	1554.67	0.0314055
0.0848216	217.046	0.00361416	1544.5	0.0257185
0.0733357	203.178	0.00364833	1445.82	0.0259616
0.0625622	191.304	0.00422996	1361.32	0.0301005
0.0515857	176.904	0.00271279	1258.85	0.0193043
0.0403296	158.36	0.00271662	1126.89	0.0193315
0.0303299	133.034	0.00216776	946.676	0.0154258
0.0183405	81.1579	0.0017502	577.521	0.0124544
0.00633786	33.8801	0.00127035	241.092	0.00903981
-0.00412121	-18.5776	0.00129729	-132.199	0.00923154
-0.0156098	-67.414	0.00185655	-479.719	0.0132113
-0.0266444	-124.534	0.00233913	-886.189	0.0166453
-0.037375	-152.008	0.00253274	-1081.69	0.018023
-0.0498482	-171.504	0.00288937	-1220.43	0.0205608
-0.0618226	-189.5	0.00371511	-1348.49	0.0264368
-0.073291	-201.002	0.00366738	-1430.33	0.0260971
-0.0837549	-211.739	0.00405277	-1506.74	0.0288396
-0.0952205	-221.278	0.00375414	-1574.62	0.0267146
-0.106934	-225.033	0.00443047	-1601.34	0.0315274
-0.118633	-232.755	0.003709	-1656.29	0.0263933
-0.129616	-237.211	0.00414743	-1688	0.0295132
-0.141327	-238.112	0.00454754	-1694.41	0.0323604
-0.152308	-241.78	0.00344183	-1720.51	0.0244921
-0.162995	-244.577	0.00403568	-1740.42	0.028718
-0.174256	-247.042	0.00430984	-1757.95	0.0306689
-0.184943	-251.258	0.00484808	-1787.96	0.0344991
-0.197657	-253.755	0.00404819	-1805.73	0.028807
-0.208608	-252.445	0.00365969	-1796.4	0.0260425
-0.219102	-256.568	0.00493708	-1825.74	0.0351324
-0.230056	-253.872	0.00379505	-1806.56	0.0270056
-0.240773	-256.034	0.00379521	-1821.94	0.0270068
-0.251731	-258.456	0.0049596	-1839.18	0.0352926
-0.263244	-257.271	0.00460372	-1830.75	0.0327602
-0.273959	-260.567	0.00371653	-1854.2	0.0264469
-0.288181	-259.03	0.00473524	-1843.27	0.0336961
-0.297225	-261.026	0.00467663	-1857.47	0.033279
-0.308467	-262.143	0.0040161	-1865.42	0.0285786
-0.320464	-260.96	0.00504153	-1857	0.0358756
-0.332461	-264.801	0.00529911	-1884.33	0.0377086
-0.343437	-265.023	0.00412742	-1885.91	0.0293708
-0.355227	-262.724	0.00441439	-1869.55	0.0314129
-0.366986	-266.572	0.00418453	-1896.93	0.0297772
-0.377251	-264.484	0.0048522	-1882.08	0.0345284
-0.38825	-267.843	0.00533303	-1905.98	0.0379499
-0.403513	-267.26	0.00489382	-1901.83	0.0348246
-0.411794	-262.902	0.00586938	-1870.81	0.0417666
-0.42278	-266.977	0.00495348	-1899.81	0.0352491
-0.434506	-270.28	0.00530903	-1923.32	0.0377792
-0.44604	-266.176	0.00409318	-1894.11	0.0291271
-0.457806	-266.374	0.00385642	-1895.52	0.0274424
-0.467803	-265.077	0.00646357	-1886.3	0.0459949
-0.479058	-268.176	0.00523985	-1908.35	0.0372869
-0.490049	-269.654	0.00360014	-1918.86	0.0256187
-0.502015	-270.199	0.00466287	-1922.74	0.0331811
-0.518045	-269.796	0.00501516	-1919.87	0.035688
-0.527521	-273.707	0.00593172	-1947.71	0.0422103
-0.539032	-269.014	0.00515615	-1914.31	0.0366913
-0.55003	-272.686	0.00478853	-1940.44	0.0340753
-0.561777	-269.44	0.00466552	-1917.34	0.0332
-0.572506	-270.363	0.00447757	-1923.91	0.0318625
-0.583777	-269.46	0.00490656	-1917.48	0.0349152
-0.594013	-271.996	0.00472024	-1935.53	0.0335893
-0.605261	-276.128	0.00567947	-1964.93	0.0404152
-0.616017	-271.105	0.00539637	-1929.19	0.0384007
-0.627963	-272.963	0.0051236	-1942.41	0.0364596
-0.639248	-272.554	0.0050083	-1939.5	0.0356392
-0.650219	-273.613	0.00554964	-1947.04	0.0394914
-0.662789	-276.521	0.00594331	-1967.73	0.0422927
-0.673723	-267.996	0.00423012	-1907.07	0.0301016
-0.685734	-272.726	0.00573744	-1940.73	0.0408277
-0.697245	-269.503	0.00416805	-1917.79	0.0296599
-0.708707	-269.668	0.00550502	-1918.97	0.0391738
-0.72045	-272.697	0.0059382	-1940.52	0.0422564
-0.731465	-274.676	0.00468764	-1954.6	0.0333574
-0.745181	-278.025	0.00621015	-1978.44	0.0441915
-0.755947	-272.455	0.00417806	-1938.8	0.0297312
-0.766939	-274.358	0.00515952	-1952.34	0.0367152
-0.777723	-269.548	0.00552751	-1918.11	0.0393339
-0.789415	-277.67	0.00562334	-1975.91	0.0400158
-0.800662	-271.881	0.00549169	-1934.71	0.039079
-0.816656	-276.707	0.00509692	-1969.05	0.0362698
-0.825914	-274.138	0.00448403	-1950.77	0.0319084
-0.837426	-272.647	0.00483651	-1940.17	0.0344167
-0.847951	-274.296	0.00462438	-1951.89	0.0329072
-0.859627	-278.157	0.00571265	-1979.37	0.0406513
-0.875356	-277.798	0.00584678	-1976.81	0.0416058
-0.884127	-275.4	0.00384563	-1959.75	0.0273656
-0.895415	-276.919	0.00516345	-1970.56	0.0367432
-0.90668	-276.84	0.00521643	-1970	0.0371202
-0.918923	-272.901	0.00412872	-1941.97	0.0293801
-0.931185	-275.041	0.00583887	-1957.2	0.0415496
-0.943651	-275.801	0.00509098	-1962.6	0.0362276
-0.956162	-276.779	0.00608273	-1969.57	0.0432849
-0.968398	-273.093	0.00503819	-1943.34	0.0358519
-0.978661	-275.377	0.0050423	-1959.59	0.0358811
-0.990177	-277.565	0.00555791	-1975.16	0.0395502
-1.00188	-278.685	0.00512911	-1983.13	0.0364988
-1.01236	-276.53	0.00559378	-1967.8	0.0398054
-1.0236	-273.773	0.00479005	-1948.17	0.0340861
-1.04011	-273.2	0.00586482	-1944.1	0.0417342
-1.04812	-273.475	0.00539279	-1946.05	0.0383752
-1.05909	-279.455	0.00438759	-1988.61	0.0312222
-1.07012	-276.875	0.00551293	-1970.25	0.0392302
-1.08259	-279.342	0.00604223	-1987.8	0.0429966
-1.09383	-276.786	0.00478249	-1969.62	0.0340323
-1.10531	-273.737	0.00489457	-1947.92	0.0348299
-1.11754	-278.484	0.00515062	-1981.7	0.0366519
-1.1286	-276.433	0.0059094	-1967.1	0.0420514
-1.14006	-277.083	0.00624204	-1971.73	0.0444185
-1.15081	-272.785	0.00567608	-1941.14	0.0403911
-1.1608	-279.033	0.0060024	-1985.61	0.0427132
-1.1738	-278.345	0.00467055	-1980.71	0.0332358
-1.18528	-275.424	0.00572051	-1959.92	0.0407073
-1.19827	-275.104	0.00496529	-1957.65	0.0353331
-1.21004	-278.208	0.00471763	-1979.73	0.0335708
-1.22177	-277.411	0.00525179	-1974.06	0.0373718
-1.23377	-276.686	0.00563546	-1968.9	0.0401021
-1.24548	-277.187	0.00639751	-1972.47	0.0455248
-1.25748	-276.538	0.00461702	-1967.85	0.0328549
-1.27248	-273.875	0.0071859	-1948.9	0.051135
-1.28194	-275.354	0.00494879	-1959.43	0.0352157
-1.29297	-275.456	0.00520793	-1960.15	0.0370598
-1.3032	-274.987	0.00582593	-1956.81	0.0414575
-1.3212	-277.64	0.00443679	-1975.69	0.0315723
-1.32945	-274.794	0.00478972	-1955.44	0.0340838
-1.34198	-274.909	0.00455391	-1956.26	0.0324057
-1.35297	-273.08	0.00598662	-1943.24	0.0426009
-1.36321	-277.108	0.00606608	-1971.91	0.0431664
-1.37472	-275.085	0.0063961	-1957.51	0.0455148
-1.3852	-279.52	0.00509376	-1989.07	0.0362473
-1.39795	-277.841	0.00557461	-1977.12	0.0396691
-1.40898	-274.798	0.00590037	-1955.47	0.0419871
-1.42018	-278.058	0.0043821	-1978.67	0.0311831
-1.43168	-276.7	0.00568657	-1969	0.0404658
-1.44266	-275.886	0.00528585	-1963.21	0.0376142
-1.45491	-275.264	0.00531592	-1958.78	0.0378282
-1.46641	-278.188	0.00607949	-1979.59	0.0432618
-1.47743	-276.406	0.00482649	-1966.91	0.0343454
-1.48961	-276.15	0.00537827	-1965.09	0.0382719
-1.50187	-273.06	0.00513992	-1943.1	0.0365758
-1.5131	-278.642	0.00623663	-1982.82	0.04438
-1.52438	-276.156	0.00581841	-1965.14	0.0414039
-1.5351	-273.711	0.00477093	-1947.73	0.0339501
-1.55236	-273.62	0.00502353	-1947.09	0.0357475
-1.56161	-278.9	0.00740141	-1984.66	0.0526686
-1.57359	-277.944	0.00483527	-1977.86	0.0344079
-1.58509	-272.834	0.00523948	-1941.49	0.0372843
-1.59632	-275.578	0.00651854	-1961.02	0.046386
-1.60757	-273.942	0.00485192	-1949.38	0.0345263
-1.61907	-275.718	0.00620745	-1962.02	0.0441724
-1.63057	-275.674	0.00676973	-1961.7	0.0481735
-1.64529	-273.841	0.00653224	-1948.66	0.0464835
-1.65953	-273.296	0.00534873	-1944.78	0.0380617
-1.66753	-274.316	0.00527898	-1952.04	0.0375653
-1.67927	-271.595	0.00497817	-1932.68	0.0354248
-1.69026	-275.354	0.00557129	-1959.43	0.0396454
-1.70098	-276.289	0.00493841	-1966.08	0.0351418
-1.71273	-275.291	0.00497383	-1958.98	0.0353939
-1.72424	-273.497	0.00492454	-1946.21	0.0350431
-1.73526	-275.068	0.00627846	-1957.39	0.0446777
-1.74822	-275.374	0.00601986	-1959.57	0.0428374
-1.75997	-277.518	0.0058732	-1974.82	0.0417938
-1.77074	-273.122	0.00540256	-1943.54	0.0384447
-1.78248	-273.382	0.00567486	-1945.39	0.0403824
-1.79448	-274.872	0.00565123	-1956	0.0402143
-1.80948	-272.359	0.00452149	-1938.11	0.032175
-1.81799	-271.088	0.00642818	-1929.07	0.0457431
-1.82969	-276.505	0.00573059	-1967.62	0.040779
-1.83964	-274.5	0.00615813	-1953.35	0.0438214
-1.85194	-271.69	0.0056941	-1933.35	0.0405194
-1.86565	-272.808	0.005381	-1941.3	0.0382913
-1.87716	-277.486	0.00505874	-1974.6	0.0359981
-1.88866	-270.567	0.0055719	-1925.36	0.0396498
-1.89963	-271.583	0.00498682	-1932.59	0.0354863
-1.91565	-275.707	0.00599822	-1961.94	0.0426834
-1.92437	-272.069	0.00533021	-1936.05	0.0379299
-1.93587	-272.924	0.0055246	-1942.13	0.0393132
-1.95062	-268.684	0.00558735	-1911.96	0.0397597
-1.96158	-272.017	0.0048396	-1935.68	0.0344387
-1.97233	-273.599	0.00652909	-1946.94	0.0464612
-1.9841	-272.002	0.00395771	-1935.57	0.0281632
-1.99533	-271.62	0.00499711	-1932.85	0.0355595
-1.99163	-274.36	0.00662484	-1952.35	0.0471425
-1.98013	-272.708	0.00562871	-1940.59	0.040054
-1.96841	-274.448	0.00585489	-1952.98	0.0416635
-1.95666	-272.776	0.00547825	-1941.08	0.0389834
-1.9449	-268.83	0.00735249	-1913	0.0523205
-1.93344	-270.407	0.00552364	-1924.22	0.0393063
-1.92117	-275.194	0.00598278	-1958.28	0.0425736
-1.90967	-270.41	0.00616223	-1924.24	0.0438505
-1.89871	-273.353	0.00538188	-1945.19	0.0382976
-1.88771	-271.211	0.00561464	-1929.94	0.0399539
-1.87674	-269.906	0.00574203	-1920.66	0.0408604
-1.86345	-272.54	0.00648974	-1939.4	0.0461811
-1.85248	-273.67	0.0063212	-1947.44	0.0449818
-1.84151	-271.592	0.00695859	-1932.65	0.0495175
-1.8305	-271.021	0.00570984	-1928.59	0.0406313
-1.81849	-272.756	0.00531124	-1940.94	0.0377949
-1.807	-269.631	0.00571769	-1918.7	0.0406872
-1.79503	-271.388	0.00513211	-1931.2	0.0365202
-1.78475	-270.561	0.00628323	-1925.32	0.0447116
-1.77248	-269.947	0.00652538	-1920.95	0.0464347
-1.76155	-272.941	0.005778	-1942.25	0.0411164
-1.74954	-279.383	0.00569202	-1988.1	0.0405046
-1.73854	-271.015	0.00580109	-1928.55	0.0412807
-1.72702	-270.018	0.00519348	-1921.45	0.0369569
-1.71603	-270.042	0.00600252	-1921.62	0.0427141
-1.69956	-269.227	0.00540679	-1915.82	0.0384748
-1.69107	-274.164	0.00501308	-1950.96	0.0356732
-1.67956	-275.388	0.00630329	-1959.67	0.0448544
-1.66886	-277.847	0.00527355	-1977.17	0.0375267
-1.65833	-274.153	0.00560149	-1950.88	0.0398604
-1.64734	-276.243	0.00637353	-1965.75	0.0453541
-1.63584	-269.814	0.0058631	-1920	0.041722
-1.62209	-274.572	0.00519763	-1953.86	0.0369864
-1.60589	-275.2	0.00583701	-1958.33	0.0415363
-1.59662	-271.943	0.00428072	-1935.16	0.0304617
-1.58487	-275.153	0.00563711	-1957.99	0.0401138
-1.57509	-275.473	0.00673676	-1960.27	0.047939
-1.56391	-274.242	0.00574174	-1951.51	0.0408583
-1.55265	-272.734	0.00519157	-1940.78	0.0369433
-1.54117	-276.292	0.00547289	-1966.1	0.0389452
-1.52792	-274.866	0.0056047	-1955.95	0.0398831
-1.51616	-271.665	0.00627814	-1933.17	0.0446754
-1.50493	-275.093	0.00538274	-1957.57	0.0383037
-1.49366	-271.413	0.00610331	-1931.38	0.0434313
-1.48317	-268.926	0.00672831	-1913.68	0.0478788
-1.47118	-275.383	0.00544911	-1959.63	0.038776
-1.45544	-272.998	0.00592546	-1942.66	0.0421657
-1.44673	-274.726	0.00647535	-1954.96	0.0460788
-1.43448	-274.595	0.00474505	-1954.03	0.0337659
-1.42374	-271.671	0.00569899	-1933.22	0.0405541
-1.40702	-273.282	0.00540003	-1944.68	0.0384268
-1.39748	-271.63	0.00599645	-1932.92	0.0426709
-1.38524	-274.52	0.00680409	-1953.49	0.048418
-1.37399	-273.415	0.00698899	-1945.63	0.0497338
-1.36273	-277.253	0.00544237	-1972.94	0.038728
-1.3515	-276.293	0.005652	-1966.11	0.0402198
-1.34153	-276.239	0.00578704	-1965.72	0.0411807
-1.33074	-272.323	0.00541534	-1937.86	0.0385357
-1.31949	-273.073	0.00552308	-1943.19	0.0393023
-1.30773	-272.73	0.00372528	-1940.75	0.0265092
-1.29576	-275.19	0.00622825	-1958.26	0.0443204
-1.28477	-272.754	0.00473391	-1940.92	0.0336866
-1.27376	-272.51	0.00497742	-1939.19	0.0354195
-1.26252	-273.466	0.00616895	-1945.99	0.0438984
-1.25178	-272.933	0.0056896	-1942.2	0.0404873
-1.23929	-275.482	0.00551802	-1960.33	0.0392664
-1.22732	-274.39	0.00612715	-1952.57	0.0436009
-1.21534	-274.974	0.00519862	-1956.72	0.0369935
-1.20407	-277.489	0.00527076	-1974.62	0.0375068
-1.19235	-272.733	0.00519639	-1940.78	0.0369776
-1.18111	-270.002	0.00585911	-1921.34	0.0416936
-1.1681	-273.546	0.00490443	-1946.56	0.0349001
-1.15711	-275.261	0.00571936	-1958.76	0.0406991
-1.14533	-268.46	0.0049376	-1910.36	0.0351361
-1.13336	-278.023	0.00654562	-1978.42	0.0465788
-1.12186	-273.931	0.00576927	-1949.3	0.0410543
-1.11109	-276.612	0.00549768	-1968.38	0.0391216
-1.09657	-275.737	0.00588801	-1962.15	0.0418992
-1.08562	-277.13	0.00576873	-1972.06	0.0410504
-1.07443	-276.364	0.00573643	-1966.61	0.0408205
-1.06238	-276.35	0.00417581	-1966.52	0.0297152
-1.05166	-272.451	0.00635697	-1938.76	0.0452363
-1.04187	-275.641	0.0050756	-1961.47	0.0361181
-1.03168	-271.398	0.00442947	-1931.28	0.0315202
-1.0187	-275.461	0.00541163	-1960.19	0.0385093
-1.0079	-273.659	0.00459312	-1947.36	0.0326847
-0.990193	-274.182	0.00494416	-1951.08	0.0351828
-0.980944	-271.291	0.00534624	-1930.51	0.038044
-0.969224	-273.565	0.00500398	-1946.7	0.0356084
-0.957673	-275.24	0.00681928	-1958.61	0.0485261
-0.946472	-278.115	0.00532113	-1979.07	0.0378653
-0.934994	-275.518	0.00578074	-1960.59	0.0411359
-0.923231	-274.769	0.00604059	-1955.26	0.042985
-0.912239	-274.206	0.00615802	-1951.26	0.0438206
-0.901494	-274.605	0.00547426	-1954.1	0.038955
-0.891238	-274.257	0.00501042	-1951.62	0.0356542
-0.877916	-270.109	0.00539023	-1922.1	0.038357
-0.867185	-273.787	0.00586737	-1948.27	0.0417524
-0.855442	-272.83	0.00574329	-1941.46	0.0408694
-0.843936	-271.37	0.00530623	-1931.08	0.0377593
-0.83294	-270.92	0.00436284	-1927.87	0.0310461
-0.821719	-275.596	0.00482569	-1961.15	0.0343397
-0.810971	-271.893	0.00520488	-1934.8	0.0370381
-0.796703	-270.204	0.00477797	-1922.78	0.0340001
-0.787706	-276.02	0.00403875	-1964.16	0.0287399
-0.772269	-268.709	0.00459123	-1912.14	0.0326713
-0.763507	-269.485	0.0040642	-1917.66	0.0289209
-0.752017	-272.94	0.00515018	-1942.25	0.0366488
-0.741761	-274.53	0.00555798	-1953.56	0.0395507
-0.731263	-275.426	0.00572031	-1959.94	0.0407059
-0.715276	-275.862	0.00427951	-1963.04	0.0304531
-0.707275	-272.134	0.00495988	-1936.51	0.0352946
-0.695265	-274.656	0.00558125	-1954.46	0.0397163
-0.684025	-271.898	0.00551041	-1934.83	0.0392122
-0.672279	-271.363	0.00594538	-1931.02	0.0423075
-0.661571	-271.799	0.0047327	-1934.12	0.033678
-0.646792	-272.046	0.00565568	-1935.88	0.040246
-0.638071	-272.963	0.00492721	-1942.41	0.0350621
-0.627302	-272.687	0.00499413	-1940.44	0.0355383
-0.613036	-273.549	0.00479876	-1946.58	0.0341481
-0.60229	-270.843	0.00595329	-1927.33	0.0423637
-0.591297	-269.334	0.00488514	-1916.59	0.0347628
-0.580842	-270.3	0.00578597	-1923.46	0.0411731
-0.567329	-271.603	0.00522655	-1932.73	0.0371923
-0.556331	-266.936	0.00570012	-1899.52	0.0405622
-0.544875	-272.701	0.00465744	-1940.55	0.0331424
-0.533595	-267.415	0.00468119	-1902.93	0.0333115
-0.522379	-272.1	0.00550909	-1936.27	0.0392028
-0.512366	-267.729	0.00555034	-1905.16	0.0394963
-0.501873	-269.288	0.00541264	-1916.26	0.0385165
-0.488866	-267.517	0.00477889	-1903.66	0.0340067
-0.473132	-265.59	0.00585129	-1889.94	0.0416379
-0.463605	-268.73	0.00456232	-1912.29	0.0324655
-0.453131	-265.074	0.00389917	-1886.28	0.0277466
-0.442138	-267.438	0.00547336	-1903.1	0.0389486
-0.431098	-265.56	0.00509602	-1889.73	0.0362634
-0.421115	-266.834	0.00543772	-1898.8	0.038695
-0.409158	-264.056	0.00472971	-1879.03	0.0336567
-0.393432	-259.867	0.00422945	-1849.22	0.0300968
-0.383632	-264.082	0.00523356	-1879.21	0.0372422
-0.372118	-265.147	0.00519189	-1886.79	0.0369456
-0.361368	-262.694	0.00592062	-1869.33	0.0421313
-0.349902	-263.532	0.00574033	-1875.3	0.0408483
-0.338171	-263.56	0.00559026	-1875.5	0.0397804
-0.327411	-261.031	0.00471345	-1857.5	0.033541
-0.316176	-266.762	0.005259	-1898.28	0.0374231
-0.305164	-261.424	0.00394653	-1860.3	0.0280836
-0.294168	-258.745	0.00491853	-1841.24	0.0350004
-0.283422	-257.549	0.00504792	-1832.72	0.0359211
-0.273181	-253.238	0.00476855	-1802.05	0.0339331
-0.26195	-255.387	0.00605954	-1817.34	0.0431198
-0.250955	-257.417	0.00496646	-1831.79	0.0353414
-0.240674	-254.787	0.00514211	-1813.07	0.0365914
-0.229172	-252.861	0.00425556	-1799.36	0.0302826
-0.217192	-253.682	0.00485514	-1805.21	0.0345493
-0.206682	-250.867	0.00495593	-1785.18	0.0352665
-0.195958	-248.743	0.00510211	-1770.06	0.0363067
-0.184686	-248.203	0.00476462	-1766.22	0.0339052
-0.173921	-246.935	0.00428083	-1757.19	0.0304625
-0.156195	-240.863	0.00338794	-1713.98	0.0241087
-0.148195	-238.734	0.00464033	-1698.84	0.0330207
-0.136187	-239.541	0.00510037	-1704.58	0.0362943
-0.126189	-236.371	0.00472942	-1682.02	0.0336546
-0.113702	-227.899	0.00491524	-1621.74	0.0349769
-0.102929	-222.935	0.00446947	-1586.41	0.0318048
-0.0916939	-218.785	0.00445025	-1556.88	0.0316681
-0.0807211	-206.541	0.00407685	-1469.75	0.029011
-0.0689657	-198.416	0.00327026	-1411.93	0.0232712
-0.0579431	-186.768	0.00398892	-1329.04	0.0283853
-0.0471802	-169.576	0.00285838	-1206.71	0.0203403
-0.036732	-149.647	0.00277041	-1064.89	0.0197143
-0.0264557	-123.916	0.00232894	-881.788	0.0165728
-0.0144492	-64.0444	0.00177011	-455.741	0.0125962
-0.00395872	-14.6727	0.00123034	-104.412	0.00875513
0.0062767	37.6748	0.00140054	268.094	0.00996628
0.0172618	83.7427	0.00176756	595.915	0.012578
0.0279759	118.792	0.00205082	845.325	0.0145937
0.037739	148.546	0.00254858	1057.06	0.0181358
0.050967	177.908	0.00325135	1266	0.0231367
0.0614455	192.95	0.00361245	1373.04	0.0257063
0.0724581	202.489	0.00383602	1440.92	0.0272972
0.083414	210.976	0.00350628	1501.31	0.0249508
0.0933539	216.26	0.00385751	1538.91	0.0274501
0.103578	222.424	0.00419067	1582.77	0.0298209
0.114273	230.026	0.00430337	1636.87	0.0306229
0.125774	235.551	0.00484812	1676.19	0.0344993
0.136958	239.609	0.00513338	1705.06	0.0365292
0.153163	239.783	0.00433948	1706.3	0.0308798
0.161402	244.137	0.00468176	1737.28	0.0333155
0.172111	243.511	0.00425092	1732.83	0.0302496
0.182839	246.235	0.00441266	1752.21	0.0314006
0.195071	250.173	0.00402306	1780.24	0.0286282
0.206546	249.322	0.00354533	1774.18	0.0252286
0.216244	249.239	0.00372032	1773.59	0.0264739
0.227699	254.543	0.00417424	1811.33	0.029704
0.238651	254.383	0.00347301	1810.19	0.024714
0.25064	259.148	0.00514679	1844.1	0.0366247
0.262102	255.682	0.00463889	1819.44	0.0330104
0.273085	257.59	0.00447229	1833.02	0.0318249
0.284862	260.381	0.00502927	1852.88	0.0357884
0.29632	263.737	0.0045352	1876.76	0.0322726
0.308079	260.185	0.00482133	1851.48	0.0343087
0.319084	263.407	0.00551742	1874.41	0.0392621
0.330834	261.97	0.00479753	1864.19	0.0341394
0.341826	264.298	0.00489112	1880.75	0.0348054
0.358324	262.626	0.00614315	1868.85	0.0437148
0.366368	263.257	0.0041131	1873.34	0.0292689
0.377082	263.415	0.00491027	1874.47	0.0349416
0.388605	267.761	0.00480774	1905.39	0.034212
0.398878	265.77	0.00463241	1891.23	0.0329643
0.410403	263.931	0.00476687	1878.14	0.0339211
0.420607	267.583	0.00510477	1904.12	0.0363256
0.432631	270.438	0.00483095	1924.44	0.0343771
0.444653	266.308	0.00560882	1895.05	0.0399125
0.459928	267.699	0.00568612	1904.95	0.0404626
0.468666	267.709	0.00517319	1905.02	0.0368125
0.479919	267.542	0.00481841	1903.84	0.0342879
0.490428	268.691	0.00466783	1912.01	0.0332164
0.505924	271.759	0.00469648	1933.84	0.0334203
0.514915	271.395	0.00548492	1931.25	0.0390308
0.526181	270.714	0.00445415	1926.41	0.0316959
0.536922	270.838	0.00560667	1927.29	0.0398972
0.547673	269.891	0.00441089	1920.55	0.031388
0.559404	270.448	0.0054042	1924.51	0.0384564
0.570382	267.676	0.0056402	1904.79	0.0401358
0.58238	269.894	0.00560394	1920.57	0.0398778
0.594146	272.941	0.00498148	1942.26	0.0354483
0.605615	267.446	0.00488194	1903.15	0.03474
0.617378	271.024	0.00618085	1928.62	0.0439831
0.627898	269.073	0.00470334	1914.73	0.0334691
0.638377	268.762	0.00447836	1912.52	0.0318681
0.648861	272.4	0.00485834	1938.4	0.034572
0.660342	268.8	0.00475521	1912.78	0.0338382
0.672062	274.025	0.00535198	1949.97	0.0380848
0.685071	266.646	0.00461964	1897.46	0.0328735
0.695815	267.31	0.00531924	1902.19	0.0378518
0.70756	273.37	0.00531727	1945.31	0.0378378
0.718834	272.232	0.00363638	1937.21	0.0258766
0.730105	268.667	0.00611499	1911.84	0.0435144
0.742053	271.176	0.00595684	1929.7	0.042389
0.752836	274.222	0.0060933	1951.37	0.0433601
0.764572	271.195	0.00530602	1929.83	0.0377578
0.777297	274.14	0.00423651	1950.78	0.0301471
0.788008	275.09	0.00374304	1957.55	0.0266356
0.799003	272.132	0.00438389	1936.5	0.0311959
0.81027	274.379	0.00512854	1952.48	0.0364948
0.821237	273.235	0.00482412	1944.35	0.0343285
0.838496	272.182	0.00566938	1936.85	0.0403434
0.846283	273.409	0.00474646	1945.58	0.0337759
0.857746	274.533	0.00625843	1953.59	0.0445351
0.869239	272.517	0.00518347	1939.24	0.0368857
0.880999	273.282	0.00472815	1944.68	0.0336456
0.89177	274.545	0.00566877	1953.67	0.0403391
0.902756	274.885	0.00456883	1956.09	0.0325119
0.913801	275.075	0.00570453	1957.44	0.0405936
0.925296	271.832	0.00533421	1934.36	0.0379583
0.9363	270.647	0.00453806	1925.93	0.0322929
0.946748	275.046	0.00642762	1957.23	0.0457391
0.957509	277.477	0.00546051	1974.53	0.0388571
0.968771	275.819	0.00529122	1962.73	0.0376524
0.981034	272.55	0.00597725	1939.47	0.0425342
0.992257	275.968	0.00547422	1963.8	0.0389546
1.00295	271.795	0.00591667	1934.1	0.0421032
1.0145	270.689	0.0044067	1926.23	0.0313581
1.02595	274.305	0.0044761	1951.96	0.031852
1.04098	274.591	0.00520872	1954	0.0370653
1.05043	271.839	0.00509024	1934.41	0.0362223
1.06145	275.126	0.00575407	1957.8	0.0409461
1.07271	271.887	0.00564435	1934.76	0.0401653
1.08596	272.76	0.00581616	1940.96	0.0413879
1.0957	275.996	0.00586595	1964	0.0417422
1.10744	277.619	0.00522532	1975.55	0.0371835
1.11916	271.288	0.00565575	1930.49	0.0402464
1.13041	274.224	0.00501287	1951.39	0.0356717
1.14164	274.108	0.00543186	1950.56	0.0386532
1.15239	279.936	0.00554928	1992.03	0.0394888
1.16437	272.321	0.00529694	1937.84	0.0376931
1.1759	275.321	0.00631556	1959.19	0.0449417
1.18942	277.632	0.00570263	1975.63	0.04058
1.20263	279.633	0.00589628	1989.87	0.041958
1.21463	277.363	0.00528151	1973.72	0.0375834
1.22611	276.258	0.00527457	1965.86	0.037534
1.23759	276.527	0.00562907	1967.77	0.0400566
1.24862	273.758	0.00431779	1948.07	0.0307255
1.25976	271.585	0.00385734	1932.6	0.0274489
1.27161	272.556	0.00491288	1939.52	0.0349601
1.28433	272.65	0.00539717	1940.18	0.0384064
1.29633	272.814	0.00493566	1941.35	0.0351223
1.30781	271.78	0.00523067	1933.99	0.0372216
1.31955	279.204	0.00625433	1986.82	0.0445059
1.33003	270.025	0.0047411	1921.51	0.0337378
1.34231	277.782	0.00479028	1976.71	0.0340877
1.35357	276.8	0.00637624	1969.72	0.0453735
1.36505	276.619	0.00591678	1968.42	0.0421039
1.37631	271.914	0.00465538	1934.94	0.0331278
1.38708	269.998	0.00515491	1921.31	0.0366824
1.39853	272.851	0.00537923	1941.62	0.0382787
1.41029	276.934	0.00542103	1970.67	0.0385762
1.42155	275.106	0.00602061	1957.66	0.0428428
1.4328	273.3	0.00657701	1944.81	0.0468021
1.44403	272.802	0.00575045	1941.27	0.0409203
1.45452	273.307	0.00523063	1944.86	0.0372213
1.46548	270.606	0.0045611	1925.64	0.0324569
1.47574	276.921	0.00484699	1970.58	0.0344913
1.48597	275.948	0.00622044	1963.65	0.0442648
1.498	278.026	0.00653798	1978.44	0.0465244
1.51372	272.53	0.00523955	1939.33	0.0372847
1.52199	274.916	0.00577995	1956.31	0.0411302
1.53597	271.583	0.00500618	1932.59	0.0356241
1.54697	274.026	0.00567728	1949.98	0.0403997
1.55872	273.322	0.00482242	1944.96	0.0343165
1.5697	272.786	0.00572868	1941.15	0.0407654
1.58044	275.144	0.00581777	1957.93	0.0413994
1.59194	271.122	0.00571053	1929.31	0.0406363
1.60343	272.547	0.00550887	1939.45	0.0392012
1.61417	270.33	0.00618554	1923.68	0.0440165
1.62467	273.2	0.00648269	1944.1	0.046131
1.6389	274.596	0.00644758	1954.03	0.0458811
1.64815	272.602	0.00565713	1939.84	0.0402563
1.65992	273.498	0.00578431	1946.22	0.0411613
1.67115	276.607	0.00602362	1968.34	0.0428642
1.68239	271.953	0.00568286	1935.22	0.0404393
1.69685	269.659	0.00511247	1918.9	0.0363804
1.70563	273.495	0.00552658	1946.2	0.0393273
1.71761	275.802	0.00625045	1962.61	0.0444783
1.73063	272.657	0.00503027	1940.24	0.0357955
1.74231	272.109	0.00577765	1936.34	0.0411139
1.75362	274.265	0.00454115	1951.68	0.0323149
1.76405	273.287	0.00542601	1944.71	0.0386116
1.77534	271.309	0.00446482	1930.64	0.0317718
1.78632	270.232	0.00690484	1922.98	0.049135
1.79807	272.886	0.00608836	1941.86	0.0433249
1.80884	272.707	0.00552894	1940.59	0.0393441
1.81983	269.06	0.00544458	1914.63	0.0387438
1.83106	272.227	0.00582101	1937.17	0.0414225
1.84233	269.049	0.00565308	1914.56	0.0402275
1.85333	271.678	0.00618454	1933.27	0.0440094
1.86406	272.069	0.00576219	1936.05	0.0410039
1.87655	273.688	0.00571638	1947.57	0.0406779
1.88902	271.365	0.00574324	1931.04	0.040869
1.89903	271.449	0.00583982	1931.64	0.0415563
1.91176	272.388	0.00651728	1938.32	0.0463771
1.92225	272.08	0.00531095	1936.13	0.0377928
1.93326	271.272	0.00686496	1930.38	0.0488512
1.945	274.375	0.00711929	1952.46	0.050661
1.95574	274.179	0.00663196	1951.06	0.0471932
1.96897	272.809	0.00626491	1941.32	0.0445812
1.97923	270.096	0.00530744	1922.01	0.0377679
1.99122	273.32	0.00573264	1944.95	0.0407936
1.99646	274.072	0.00591828	1950.3	0.0421146