File: data/monolayers/nanoparticles/Ac_CoFe_C_AH/vsm/ah11_300K_rescaled.dat
#Loaded datafile ../AH11_HYST_INIT_300K.DAT
#Used as Ms_fit 2038.01
#Used as Ms_calc 229.328
#Rescaled data with factor 0.112525
#B/T	M/kAm-1	sM/kAm-1
-1.52238e-06	-6.23846	0.000117452
0.0234483	72.1098	0.00163026
0.0566166	142.763	0.00248633
0.0894677	168.92	0.00344217
0.122364	182.769	0.00383082
0.158533	191.123	0.00308995
0.192671	195.583	0.00321525
0.223592	200.132	0.00301418
0.261275	203.802	0.00316382
0.29214	204.038	0.00396611
0.325618	210.858	0.00415042
0.357438	211.019	0.00387851
0.391632	207.319	0.00365247
0.422583	213.756	0.00477961
0.456802	211.226	0.00438898
0.491223	214.518	0.00365874
0.523927	214.288	0.00453715
0.556885	212.783	0.00371642
0.589082	212.685	0.00353162
0.622588	212.465	0.00429041
0.655068	217.304	0.00420758
0.689044	217.474	0.00467102
0.722017	215.461	0.00394868
0.756016	217.099	0.00445842
0.792952	214.527	0.00451283
0.825958	216.89	0.00451045
0.86116	216.059	0.00459453
0.895221	212.681	0.00411798
0.93373	214.795	0.00370738
0.964218	217.751	0.00313942
1.00019	217.805	0.00359905
1.03614	216.067	0.00406769
1.07187	216.294	0.00461931
1.10862	219.868	0.00443763
1.14308	218.444	0.00431381
1.18056	216.645	0.00446265
1.2178	219.049	0.00489237
1.25254	220.873	0.00474609
1.2855	216.176	0.0045802
1.32176	216.287	0.00441816
1.35399	218.123	0.00348879
1.39276	220.009	0.00388533
1.42598	213.75	0.00457699
1.46244	215.244	0.00414986
1.49691	214.341	0.00550495
1.53665	213.686	0.00394132
1.56587	215.536	0.00424104
1.60135	215.399	0.00527754
1.63983	217.697	0.0045421
1.6738	215.052	0.00471357
1.71353	216.605	0.00419734
1.74502	214.382	0.00390553
1.78024	211.768	0.00394035
1.81675	218.21	0.00457466
1.85198	215.428	0.00501281
1.88397	214.77	0.00364412
1.91895	216.689	0.00487659
1.95441	215.33	0.00492909
1.99292	216.032	0.00495089
2.02434	214.516	0.0047174
2.06235	215.649	0.00489428
2.09708	216.38	0.0040285
2.13279	213.731	0.00417524
2.16577	213.37	0.0051971
2.20501	210.24	0.00409907
2.23728	210.082	0.00483885
2.27053	211.478	0.00502451
2.30523	213.242	0.00417683
2.33773	212.949	0.00482785
2.37594	208.903	0.00392436
2.40968	214.292	0.00512208
2.44816	214.622	0.00567398
2.48087	205.27	0.00516338
2.51561	208.69	0.00598047
2.55235	212.848	0.00430781
2.58805	208.295	0.00424263
2.62276	210.625	0.00461136
2.65853	207.498	0.00420878
2.69356	205.311	0.00562914
2.72955	204.955	0.00501005
2.76754	206.53	0.00380658
2.804	211.581	0.00528814
2.83774	206.921	0.00396761
2.87272	204.195	0.00576139
2.9107	208.511	0.00525778
2.94343	203.988	0.0044817
2.97917	209.058	0.0051968
3.01389	207.335	0.00505997
3.04909	206.236	0.0046146
3.08458	204.795	0.00488575
3.11808	205.221	0.00459581
3.15432	201.351	0.00457528
3.1888	198.162	0.0049213
3.22379	206.272	0.00461228
3.257	201.655	0.00594561
3.29424	203.485	0.00537096
3.32925	206.104	0.00465189
3.36447	201.745	0.00476078
3.40043	201.306	0.005045
3.43568	200.149	0.00446562
3.46888	202.282	0.00435854
3.50361	200.845	0.00479599
3.54034	200.941	0.00622234
3.57734	200.36	0.00477547
3.61282	199.71	0.0051155
3.64807	198.918	0.00573692
3.68527	195.984	0.00460192
3.72001	200.576	0.00481914
3.7555	199.051	0.00544926
3.79044	199.725	0.00503241
3.82742	198.332	0.00480804
3.86192	198.129	0.00564152
3.89715	194.706	0.00547027
3.93062	193.954	0.00461558
3.96362	199.081	0.00420598
4.00059	199.853	0.00517265
4.03436	197.392	0.0049992
4.07034	195.085	0.00509885
4.10481	192.483	0.00495793
4.14078	190.584	0.00442465
4.17377	193.027	0.00550515
4.21176	192.797	0.0060033
4.24649	190.656	0.00500635
4.28146	194.518	0.0046757
4.31595	192.284	0.00582423
4.34991	191.723	0.0057646
4.38337	190.723	0.00550377
4.41837	191.924	0.00491766
4.4574	187.893	0.00507926
4.4924	190.368	0.00547643
4.52713	190.73	0.0048584
4.5616	186.102	0.00586124
4.60057	188.561	0.00439254
4.63505	186.927	0.00546686
4.67034	183.857	0.00507328
4.70427	187.969	0.00488196
4.74001	188.203	0.00469703
4.77449	189.555	0.0054549
4.80969	189.334	0.0057986
4.84569	187.049	0.00605874
4.88115	184.665	0.00373468
4.91865	181.68	0.00637959
4.9534	180.393	0.00572428
4.98717	183.955	0.00430768
5.02088	181.904	0.00545945
5.05835	179.169	0.00545288
5.09157	180.675	0.00638852
5.13379	177.982	0.00599555
5.16555	178.794	0.0063338
5.20079	180.613	0.00582763
5.23648	179.548	0.0055914
5.2712	180.045	0.00657782
5.30517	180.228	0.00612271
5.34069	176.861	0.00490036
5.37541	176.384	0.00580626
5.40964	174.477	0.00594857
5.44565	176.416	0.00571568
5.47986	175.595	0.00547053
5.51361	177.164	0.00550195
5.54783	177.415	0.00586711
5.58804	180.936	0.00582306
5.61879	175.478	0.00621997
5.65649	173.899	0.00579943
5.69101	175.127	0.00609714
5.72576	172.448	0.00638834
5.76222	173.307	0.00638568
5.79544	173.013	0.00597969
5.8307	173.84	0.00437762
5.86867	168.537	0.00603171
5.90264	170.783	0.00605825
5.93661	172.59	0.00615278
5.97338	166.127	0.00532734
6.00536	168.223	0.00487908
6.04283	170.031	0.00513772
6.07726	171.318	0.005991
6.11181	165.82	0.00542521
6.14576	164.548	0.00482483
6.18075	167.695	0.00525877
6.21622	168.631	0.00541174
6.25128	168.872	0.00656542
6.28951	163.174	0.00605839
6.32478	163.606	0.00481386
6.35947	163.328	0.00567762
6.39421	162.739	0.00630592
6.42969	164.052	0.0067695
6.46292	161.783	0.00567091
6.50015	162.599	0.00475334
6.53515	161.893	0.00535876
6.56961	165.354	0.00519854
6.60484	159.714	0.00616473
6.64029	156.944	0.00595221
6.67607	161.767	0.00532331
6.71205	156.889	0.00572628
6.7473	157.06	0.0044794
6.78526	157.502	0.00553429
6.81847	155.368	0.00594168
6.85222	155.107	0.00699257
6.88695	157.413	0.00584286
6.92243	153.823	0.00534645
6.95643	158.399	0.0056273
6.99341	156.125	0.00608781
7.02561	152.016	0.00727959
7.06106	156.108	0.0067373
7.09558	151.996	0.00661564
7.13257	152.532	0.00580942
7.17306	150.396	0.00517987
7.20507	151.033	0.00614484
7.24329	152.328	0.00629339
7.27776	150.85	0.00661588
7.31251	147.639	0.0062804
7.34601	151.751	0.00618905
7.38046	145.657	0.00520759
7.41668	146.542	0.00720698
7.45293	148.489	0.00700549
7.48641	145.472	0.00675441
7.52441	144.567	0.00513534
7.55864	145.708	0.00573346
7.59391	142.781	0.00625825
7.6309	143.619	0.0053749
7.66835	144.542	0.00505862
7.7016	144.305	0.00666594
7.73831	142.115	0.0067294
7.77106	139.842	0.005718
7.80531	141.787	0.00686629
7.84028	140.011	0.0061084
7.87575	139.836	0.00562816
7.91027	141.619	0.0066529
7.94796	138.152	0.00868899
7.98496	139.081	0.00777202
8.01821	140.577	0.00667363
8.05497	138.226	0.00714667
8.09047	140.577	0.00664792
8.12322	136.391	0.00801132
8.16064	134.995	0.00648736
8.19591	133.802	0.00653896
8.22986	135.555	0.00684414
8.26686	133.871	0.00749914
8.30235	136.396	0.00675537
8.34288	132.272	0.0076342
8.37506	132.882	0.007103
8.4098	134.711	0.0077297
8.44454	134.15	0.00745954
8.47781	132.701	0.00718365
8.51105	131.26	0.00613281
8.54979	133.073	0.00866897
8.58025	127.856	0.00732558
8.61199	128.397	0.0080928
8.64499	128.266	0.00789255
8.68097	127.22	0.00938184
8.71619	127.689	0.00667354
8.75043	127.942	0.00919125
8.78692	125.571	0.00781128
8.81913	126.792	0.00875446
8.85367	125.814	0.0089068
8.88911	124.454	0.00683588
8.92087	126.722	0.00808115
8.95735	122.809	0.00784034
8.9911	124.291	0.0075826
8.98045	122.96	0.00822666
8.94665	123.716	0.00738201
8.91224	125.15	0.00905732
8.88002	125.327	0.00652266
8.84855	125.642	0.00749501
8.81554	125.304	0.00937017
8.78158	125.268	0.00948684
8.74759	128.609	0.00678596
8.71462	125.071	0.00879922
8.68065	127.738	0.00807068
8.64639	129.345	0.00792919
8.61439	129.457	0.00738219
8.57765	132.973	0.00720473
8.54518	131.171	0.00719065
8.51043	128.908	0.0074235
8.47643	130.826	0.00871082
8.44317	131.76	0.00870965
8.40567	133.78	0.00727946
8.37244	131.925	0.00674446
8.33701	134.714	0.0079242
8.30423	131.235	0.00726425
8.26674	134.037	0.00742345
8.23302	136.534	0.00846577
8.19852	135.164	0.00653273
8.16528	132.659	0.00731353
8.12977	135.455	0.00660742
8.09507	139.177	0.00546111
8.05482	137.627	0.00720575
8.02204	136.109	0.00687868
7.98777	137.208	0.00694732
7.94955	137.499	0.00584271
7.91606	138.844	0.00815945
7.88031	143.269	0.00742646
7.84037	138.839	0.00717938
7.80935	139.81	0.00634767
7.76813	141.429	0.00527234
7.73464	143.668	0.0072468
7.69966	140.41	0.00642188
7.66244	145.33	0.00557826
7.63066	144.191	0.00827644
7.59569	145.144	0.0061389
7.56166	145.139	0.0082185
7.52694	147.593	0.00563609
7.49344	147.237	0.00744986
7.45347	147.777	0.00667683
7.42148	148.845	0.00739651
7.38248	147.559	0.00565198
7.34851	145.68	0.00787051
7.31352	149.072	0.00629251
7.27554	146.995	0.00520773
7.24104	147.984	0.00699607
7.20659	150.062	0.00691415
7.17234	153.775	0.00568989
7.1331	147.227	0.00644386
7.0986	151.408	0.00680384
7.06512	150.842	0.00706619
7.03111	150.874	0.00575597
6.99641	153.058	0.00618191
6.96266	151.152	0.00523433
6.92643	152.001	0.00576791
6.89246	153.265	0.006746
6.86047	158.56	0.00551135
6.82423	157.303	0.00719052
6.78601	155.379	0.00531059
6.75377	156.715	0.00600074
6.71853	158.633	0.00492854
6.68379	159.467	0.00637685
6.65103	158.218	0.00464918
6.61231	157.236	0.00626028
6.57931	156.52	0.00563983
6.53861	157.624	0.00608386
6.50536	160.919	0.00626453
6.46789	160.801	0.00702231
6.43366	162.75	0.00621629
6.39768	160.274	0.005803
6.36318	160.764	0.00680155
6.33097	163.374	0.0052558
6.29547	160.038	0.00599485
6.26274	162.273	0.00613232
6.22544	164.048	0.00660682
6.19095	164.193	0.00560642
6.15599	165.156	0.00674592
6.12324	166.227	0.00567297
6.08548	165.521	0.00512178
6.05027	166.096	0.00610032
6.01731	163.72	0.00576645
5.98184	168.051	0.00508707
5.94759	168.561	0.00655039
5.91059	166.262	0.00476629
5.87614	162.561	0.00530249
5.84065	169.283	0.00495765
5.80692	171.287	0.00624525
5.77139	168.549	0.00588472
5.73666	171.409	0.00558147
5.70192	170.119	0.00619652
5.66745	172.894	0.00605337
5.63246	174.142	0.00599522
5.59574	170.92	0.00613851
5.55878	170.634	0.00484987
5.52378	174.499	0.00570967
5.49253	169.75	0.00582524
5.45504	169.736	0.00595961
5.42036	173.613	0.0049926
5.38061	175.098	0.00579002
5.34964	174.536	0.0068188
5.31235	176.41	0.00659135
5.27789	175.892	0.00465866
5.23943	179.459	0.00505741
5.2082	178.618	0.00578382
5.17246	177.82	0.00517736
5.13672	175.422	0.00647573
5.10299	177.757	0.0045496
5.06752	180.562	0.00520228
5.03304	180.565	0.00485988
4.99881	181.175	0.00590192
4.96333	183.065	0.00517705
4.92534	178.926	0.00491125
4.89455	179.532	0.00523899
4.8571	180.261	0.00490044
4.82214	184.358	0.00549058
4.78666	181.912	0.00587332
4.75217	177.267	0.00506149
4.71795	183.029	0.00547448
4.68194	187.239	0.00565268
4.64649	184.599	0.00566935
4.60822	184.961	0.00485061
4.57401	182.073	0.00463614
4.53631	184.498	0.00401582
4.49909	187.526	0.00652882
4.46729	181.574	0.00582627
4.43077	182.342	0.00650855
4.3943	188.985	0.00538157
4.36109	194.041	0.00489065
4.32535	190.65	0.00558306
4.29138	189.014	0.00587048
4.25714	188.154	0.00534921
4.21965	188.942	0.00526191
4.1859	187.951	0.00416075
4.14945	189.435	0.00478876
4.11299	192.687	0.00475281
4.07926	193.655	0.00511139
4.04152	191.993	0.00506425
4.00551	188.109	0.00397609
3.97127	188.075	0.00465565
3.93156	192.285	0.00515051
3.90183	192.532	0.00421115
3.8671	194.024	0.00517339
3.83411	193.028	0.00505125
3.79688	192.157	0.00480531
3.76216	195.882	0.00598606
3.72844	194.252	0.00602934
3.69345	193.381	0.00480682
3.66049	194.519	0.00456863
3.62478	192.975	0.00495191
3.58876	193.631	0.00605781
3.55428	194.069	0.00442537
3.51582	196.204	0.00498585
3.48256	195.422	0.00560408
3.44686	198.8	0.00633051
3.41038	195.301	0.00494644
3.37413	197.308	0.00393186
3.33691	197.68	0.00486617
3.30266	199.939	0.00553331
3.26696	197.939	0.00498998
3.23198	198.412	0.00515841
3.19725	198.67	0.00580019
3.15951	198.936	0.00439373
3.12078	200.498	0.00433193
3.08703	201.954	0.0048733
3.05229	200.261	0.00470132
3.01756	201.492	0.00482337
2.9806	203.214	0.00521093
2.94713	201.027	0.00508704
2.91264	202.332	0.00524611
2.87967	202.108	0.00462621
2.84668	204.741	0.00486402
2.81145	204.923	0.00493667
2.77598	200.177	0.00422429
2.73724	201.329	0.00506708
2.70402	201.551	0.00574907
2.66923	202.946	0.00459586
2.634	204.315	0.00519354
2.59676	203.656	0.00544807
2.56279	202.606	0.00406574
2.53056	206.876	0.00513738
2.49483	205.458	0.00446801
2.4596	203.74	0.00523199
2.42312	207.421	0.00450673
2.3889	206.928	0.00544888
2.35294	208.8	0.00587847
2.31845	203.918	0.00418572
2.28422	208.534	0.0047795
2.24224	209.526	0.0043461
2.21172	205.532	0.00542227
2.17372	207.734	0.00457913
2.14076	205.07	0.00560756
2.10703	207.795	0.00473587
2.07382	207.576	0.00407548
2.03682	208.669	0.00528592
2.00335	207.963	0.0049462
1.96937	208.068	0.00401609
1.93315	208.657	0.00449306
1.89769	208.63	0.00530357
1.86272	209.129	0.0046178
1.82821	206.525	0.00423908
1.79376	207.649	0.00486913
1.75726	209.824	0.00502309
1.72454	208.184	0.00501913
1.68978	210.848	0.00502736
1.65033	212.047	0.005262
1.61933	210.581	0.00510065
1.58462	210.837	0.00412385
1.5491	210.815	0.003896
1.51515	204.686	0.0053992
1.48141	211.352	0.00390575
1.44343	210.754	0.00426662
1.40972	205.37	0.00408289
1.37698	209.762	0.00450923
1.3425	209.713	0.00380168
1.309	208.625	0.00482067
1.27326	207.793	0.00437076
1.23854	212.209	0.00487022
1.20231	209.84	0.00399342
1.16836	208.613	0.00407608
1.1326	208.582	0.00386365
1.09642	209.996	0.00418103
1.06291	209.155	0.00495148
1.02516	210.662	0.00492387
0.987985	209.32	0.00468173
0.955213	210.537	0.00421866
0.91998	210.035	0.0038148
0.884719	210.154	0.00391089
0.847703	209.332	0.0042417
0.815216	208.394	0.00426371
0.78275	208.423	0.00418677
0.749305	208.771	0.00390972
0.714054	208.508	0.00449718
0.679556	204.596	0.00427785
0.64534	208.613	0.00354063
0.613611	208.056	0.00362272
0.57784	206.393	0.00455216
0.54538	205.431	0.00512757
0.508657	203.826	0.00320572
0.475175	203.403	0.00425671
0.44218	204.623	0.00431386
0.407927	203.245	0.00390687
0.374902	202.056	0.00416361
0.340409	202.693	0.00444016
0.307981	199.69	0.00369572
0.269503	197.735	0.00336973
0.239749	196.499	0.0047672
0.204773	190.645	0.00358647
0.171248	187.437	0.00328758
0.137244	180.406	0.0030462
0.103754	173.008	0.00337718
0.0694936	153.221	0.00313231
0.0357363	108.309	0.00207806
0.0027944	19.3967	0.00101151
-0.0309091	-97.959	0.00169644
-0.061346	-144.893	0.00275107
-0.0947742	-167.765	0.00344245
-0.128431	-179.247	0.00315199
-0.162119	-184.482	0.00375677
-0.194705	-188.993	0.00341184
-0.229127	-192.782	0.00338162
-0.263809	-197.151	0.00326319
-0.29653	-200.751	0.00370439
-0.333271	-200.326	0.00378037
-0.366281	-204.955	0.00457708
-0.400297	-204.129	0.00371859
-0.435551	-204.178	0.00466144
-0.469814	-204.986	0.00440902
-0.5031	-207.756	0.00430897
-0.537356	-206.976	0.00467478
-0.573571	-207.456	0.00469278
-0.605817	-205.869	0.00401116
-0.641053	-206.164	0.0041901
-0.674787	-207.195	0.00407441
-0.710019	-208.762	0.00432785
-0.742767	-209.476	0.00449928
-0.779013	-206.95	0.00373275
-0.811463	-208.749	0.00517677
-0.845441	-209.887	0.00482601
-0.879936	-212.391	0.00389624
-0.914228	-209.385	0.00457059
-0.950974	-206.629	0.00422461
-0.984429	-211.062	0.00456153
-1.02017	-209.02	0.00444586
-1.05365	-208.81	0.00514578
-1.08813	-208.373	0.00484189
-1.12286	-208.111	0.0049146
-1.15662	-206.114	0.00417152
-1.19033	-209.543	0.00346109
-1.22357	-208.13	0.00450935
-1.26103	-209.648	0.00383796
-1.2945	-210.76	0.0043319
-1.32928	-211.092	0.00539811
-1.3623	-209.974	0.00400709
-1.39727	-211.065	0.00342563
-1.43127	-208.982	0.00437702
-1.46796	-211.613	0.00423545
-1.50367	-209.967	0.0049773
-1.538675	-207.241	0.00454202
-1.57465	-208.152	0.00490289
-1.60964	-207.738	0.00444932
-1.64637	-206.769	0.00374509
-1.68105	-208.584	0.00448053
-1.7163	-210.05	0.00382577
-1.75379	-208.702	0.00482025
-1.78955	-206.463	0.00444584
-1.82397	-207.942	0.0044974
-1.85898	-209.025	0.00444799
-1.89321	-204.583	0.00426169
-1.92894	-206.902	0.00354659
-1.96266	-204.425	0.00435422
-1.99841	-205.327	0.0047165
-2.03611	-205.201	0.00576757
-2.06762	-207.101	0.00503599
-2.10336	-206.019	0.00466671
-2.13702	-205.316	0.00531049
-2.176	-202.671	0.00516331
-2.20701	-205.331	0.00350934
-2.24397	-202.337	0.0046245
-2.27948	-201.346	0.00408417
-2.31424	-205.622	0.00443868
-2.34844	-205.346	0.00526277
-2.38616	-202.985	0.00521365
-2.42141	-202.257	0.00424649
-2.45614	-201.053	0.00416446
-2.49284	-203.233	0.00591927
-2.53108	-203.63	0.00442492
-2.56308	-197.185	0.00618199
-2.60002	-202.984	0.00397657
-2.63552	-202.733	0.00414962
-2.66874	-200.741	0.00399135
-2.70503	-197.633	0.00517096
-2.7388	-201.529	0.0043258
-2.77952	-199.246	0.00453104
-2.81417	-202.163	0.00479167
-2.84895	-200.115	0.00440275
-2.88218	-203.859	0.00478898
-2.91613	-198.309	0.00438445
-2.95011	-202.179	0.00469238
-2.98463	-199.403	0.0037752
-3.01981	-194.488	0.00441578
-3.05455	-197.905	0.00493485
-3.0885	-194.929	0.00544358
-3.12251	-197.158	0.00590926
-3.15955	-195.733	0.00444073
-3.1925	-195.984	0.00511801
-3.23244	-194.559	0.00572388
-3.26763	-197.899	0.00483299
-3.3069	-195.523	0.00470003
-3.33867	-193.547	0.00375425
-3.37463	-196.293	0.00482165
-3.40958	-200.268	0.00519203
-3.44431	-195.503	0.00401897
-3.48426	-193.787	0.0045304
-3.51526	-194.681	0.00371525
-3.55275	-192.19	0.00495296
-3.58773	-192.285	0.00490122
-3.625	-193.343	0.00449475
-3.65816	-195.696	0.00509539
-3.69437	-191.188	0.0051587
-3.73212	-190.922	0.00583833
-3.76411	-189.422	0.00526802
-3.79862	-189.329	0.00617506
-3.83904	-191.731	0.00487406
-3.87157	-185.158	0.00618504
-3.91199	-190.693	0.00517686
-3.94303	-190.205	0.00441042
-3.97875	-190.763	0.00390233
-4.01396	-190.355	0.00482413
-4.04772	-186.5	0.00515805
-4.08498	-187.434	0.00443645
-4.11922	-185.627	0.00402723
-4.15539	-188.704	0.00446604
-4.1884	-187.34	0.00472262
-4.22643	-182.832	0.00476131
-4.2601	-183.901	0.00495202
-4.30004	-184.081	0.00524259
-4.3293	-182.567	0.00529533
-4.36499	-186.392	0.0057888
-4.40297	-182.145	0.0048382
-4.44169	-182.621	0.00567771
-4.47351	-181.094	0.00511973
-4.509	-181.845	0.00523705
-4.54423	-183.912	0.00493614
-4.58367	-180.086	0.00560972
-4.61746	-180.872	0.00451087
-4.65168	-180.377	0.00438819
-4.69263	-180.864	0.00585824
-4.72236	-181.858	0.00582665
-4.75682	-179.469	0.00664522
-4.79178	-178.483	0.00534047
-4.82756	-177.237	0.00432092
-4.86271	-178.23	0.00553394
-4.89973	-175.824	0.00559629
-4.9335	-181.374	0.00577363
-4.9685	-173.932	0.0050006
-5.00495	-176.693	0.00438108
-5.03992	-173.688	0.00500265
-5.07765	-177.638	0.00471146
-5.11062	-176.605	0.00574938
-5.14858	-176.83	0.00518571
-5.17908	-174.423	0.0057603
-5.21753	-173.47	0.00586487
-5.25028	-169.724	0.00525737
-5.2865	-173.279	0.00542804
-5.32199	-171.323	0.00512274
-5.35746	-170.926	0.00503765
-5.39294	-170.305	0.00667204
-5.42768	-169.038	0.00577157
-5.4639	-170.199	0.00539179
-5.49814	-170.6	0.00599752
-5.53535	-167.627	0.00594589
-5.57011	-168.689	0.00545618
-5.61083	-167.461	0.00604189
-5.64182	-166.076	0.00514431
-5.67752	-163.198	0.00586793
-5.71297	-165.521	0.00497302
-5.74748	-168.229	0.00546502
-5.78147	-167.461	0.00450478
-5.81868	-166.301	0.00571863
-5.85566	-166.647	0.00499605
-5.8919	-162.268	0.00507669
-5.92686	-162.394	0.00603017
-5.96489	-163.204	0.0050696
-6.00037	-165.199	0.00553229
-6.03734	-160.229	0.00571718
-6.07327	-162.573	0.00420505
-6.10853	-158.486	0.00669546
-6.14248	-157.283	0.0070439
-6.17622	-160.893	0.00648208
-6.21123	-159.861	0.00587975
-6.24748	-160.552	0.00560296
-6.28173	-159.333	0.00616798
-6.31594	-156.106	0.0058644
-6.35316	-156.786	0.0064244
-6.38737	-155.334	0.00631991
-6.42612	-154.82	0.00600785
-6.46061	-156.103	0.00649693
-6.49632	-153.19	0.00467759
-6.53252	-154.745	0.00530175
-6.56803	-158.788	0.00564354
-6.6027	-154.264	0.00660816
-6.63723	-157.584	0.00536519
-6.67193	-153.485	0.00585543
-6.70572	-151.05	0.00632505
-6.74269	-147.294	0.00584348
-6.77869	-153.514	0.00591403
-6.81361	-150.307	0.00532663
-6.85261	-148.611	0.00623542
-6.88333	-152.47	0.00637537
-6.91804	-149.756	0.00589407
-6.95478	-146.636	0.00654101
-6.99325	-147.535	0.00531764
-7.02847	-147.941	0.00606169
-7.06719	-148.352	0.00603407
-7.10095	-148.548	0.00561414
-7.13513	-143.22	0.00592309
-7.17014	-145.2	0.00667493
-7.20662	-142.049	0.00752383
-7.23958	-145.89	0.00652119
-7.27653	-145.04	0.00630874
-7.31078	-144.172	0.00642235
-7.34776	-144.182	0.00463299
-7.37997	-138.938	0.00687977
-7.41472	-141.217	0.00722714
-7.45144	-141.255	0.00672611
-7.48563	-142.15	0.00735982
-7.52113	-139.494	0.00753155
-7.55885	-139.927	0.00489904
-7.59162	-140.367	0.0064804
-7.62585	-137.657	0.00668124
-7.66408	-139.585	0.00601649
-7.69483	-136.787	0.00648109
-7.73031	-137.337	0.00610125
-7.7655	-135.733	0.00615949
-7.80022	-136.865	0.00656566
-7.83269	-134.73	0.00605006
-7.86919	-135.187	0.00713855
-7.90493	-133.386	0.00754086
-7.94208	-133.023	0.0065444
-7.97784	-131.909	0.00623605
-8.01407	-135.287	0.00664971
-8.04938	-131.789	0.00711971
-8.08362	-132.882	0.00584757
-8.12335	-132.186	0.00574615
-8.15556	-133.705	0.00733634
-8.19103	-130.37	0.00592591
-8.22525	-127.958	0.00726613
-8.25969	-129.323	0.00650649
-8.29495	-128.785	0.00816346
-8.32843	-126.679	0.00784827
-8.36313	-124.674	0.00638795
-8.39663	-129.496	0.00641855
-8.43484	-129.266	0.0073945
-8.46555	-124.661	0.00680661
-8.50082	-125.309	0.00669004
-8.53532	-124.104	0.00801272
-8.5688	-122.817	0.0063757
-8.60373	-123.432	0.00815661
-8.63923	-122	0.00936819
-8.67271	-122.88	0.00748567
-8.70718	-122.067	0.00719671
-8.74087	-122.72	0.00638699
-8.77461	-120.568	0.00836165
-8.80909	-120.001	0.009541
-8.8443	-120.01	0.00664495
-8.8783	-120.971	0.00733536
-8.91377	-121.065	0.00782661
-8.94651	-115.782	0.0101068
-8.97995	-117.848	0.00845206
-8.99007	-116.9	0.0074135
-8.95509	-120.633	0.00770474
-8.92222	-120.938	0.00827238
-8.88801	-116.274	0.00827281
-8.85356	-120.583	0.00752654
-8.82009	-121.059	0.00846149
-8.78789	-121.228	0.00892208
-8.75288	-122.428	0.0074162
-8.71918	-120.395	0.00810431
-8.68647	-121.286	0.00682084
-8.65098	-124.146	0.00816115
-8.61951	-123.049	0.00806136
-8.58352	-121.399	0.00810017
-8.55031	-121.666	0.00767915
-8.51586	-124.117	0.00701034
-8.48262	-126.216	0.00697938
-8.44534	-124.572	0.00905051
-8.41086	-128.061	0.00806346
-8.37588	-126.279	0.00791149
-8.33918	-125.236	0.00732021
-8.30618	-128.643	0.00670486
-8.27069	-129.025	0.0076696
-8.23675	-131.117	0.00627021
-8.20027	-131.582	0.00648841
-8.16553	-130.521	0.00659593
-8.12382	-129.867	0.00587263
-8.09209	-132.125	0.00719516
-8.05535	-133.201	0.00811923
-8.01884	-132.779	0.00593038
-7.98285	-137.047	0.00621341
-7.94637	-134.233	0.00765879
-7.91114	-133.411	0.00710917
-7.87491	-136.777	0.00525512
-7.84044	-133.566	0.00685222
-7.80567	-136.89	0.00594673
-7.77399	-135.425	0.00555369
-7.73926	-137.367	0.0068227
-7.70629	-136.322	0.00771847
-7.66733	-138.589	0.00599502
-7.63559	-137.918	0.00739344
-7.60012	-139.904	0.00579898
-7.56662	-138.239	0.00632085
-7.52886	-140.644	0.00552043
-7.49513	-139.059	0.00572673
-7.45593	-142.954	0.0062152
-7.42395	-142.721	0.00576272
-7.38446	-142.629	0.0076932
-7.34773	-141.99	0.0062273
-7.30877	-140.601	0.00520074
-7.2748	-143.522	0.00773008
-7.24232	-142.97	0.0065572
-7.20234	-144.097	0.0066647
-7.16887	-144.558	0.00680393
-7.13063	-148.225	0.00624968
-7.09889	-148.374	0.00660735
-7.06142	-147.925	0.00590245
-7.02795	-148.907	0.0057516
-6.98722	-146.875	0.00726226
-6.95222	-147.684	0.00596307
-6.91701	-149.84	0.00787809
-6.88182	-149.194	0.00673992
-6.84409	-150.278	0.00576873
-6.80785	-151.846	0.00501039
-6.7714	-151.456	0.00549248
-6.7364	-152.934	0.0056898
-6.70443	-154.704	0.00523217
-6.66717	-151.613	0.00530423
-6.63167	-152.786	0.00623413
-6.59697	-152.268	0.00512003
-6.56149	-155.175	0.00463363
-6.52649	-156.052	0.00506403
-6.49278	-156.091	0.00559765
-6.45656	-155.679	0.00454446
-6.42184	-155.051	0.00587196
-6.38711	-152.416	0.00620304
-6.35092	-154.877	0.00577182
-6.31615	-158.251	0.0056241
-6.28166	-156.188	0.00454705
-6.24618	-156.734	0.00565753
-6.21166	-161.394	0.00517116
-6.17693	-156.709	0.00541848
-6.1392	-160.191	0.00556485
-6.10547	-160.228	0.00570975
-6.06677	-161.378	0.00590711
-6.03203	-163.028	0.00538889
-5.99656	-164.474	0.00584569
-5.9626	-162.236	0.00531486
-5.92137	-158.811	0.00553643
-5.88916	-164.909	0.00511507
-5.85341	-162.338	0.00529628
-5.81942	-160.437	0.00520466
-5.78168	-167.53	0.00479616
-5.74768	-161.842	0.00604152
-5.71171	-166.335	0.00449355
-5.67775	-165.264	0.0042638
-5.64379	-162.102	0.00452106
-5.60829	-166.199	0.00575875
-5.57387	-169.235	0.00576002
-5.53882	-169.759	0.00546065
-5.50405	-166.784	0.00495859
-5.46939	-167.751	0.00541791
-5.43365	-172.629	0.00521272
-5.39869	-167.25	0.006399
-5.3642	-169.422	0.0045693
-5.32822	-168.008	0.00506409
-5.2932	-170.982	0.0051021
-5.26	-171.244	0.00654206
-5.2243	-172.104	0.0053349
-5.19181	-170.354	0.00485476
-5.15631	-172.214	0.00595219
-5.12035	-173.862	0.00490119
-5.08764	-172.495	0.00498975
-5.05315	-173.245	0.00701216
-5.01743	-177.357	0.00473745
-4.98123	-174.53	0.00563204
-4.94798	-173.557	0.00418519
-4.90823	-175.066	0.00578906
-4.87297	-177.537	0.00565723
-4.83902	-177.955	0.00583441
-4.80277	-177.74	0.00506389
-4.76831	-173.427	0.00441027
-4.73507	-176.538	0.00627002
-4.69911	-177.829	0.00519485
-4.66463	-180.244	0.00579939
-4.63167	-179.539	0.0051277
-4.59346	-178.16	0.00537848
-4.5597	-181.35	0.00402033
-4.52348	-181.425	0.0059548
-4.48774	-178.704	0.00487217
-4.4497	-181.433	0.00541211
-4.41823	-181.268	0.00393184
-4.38151	-181.041	0.00433797
-4.34854	-184.516	0.00400093
-4.3148	-183.337	0.00653855
-4.27936	-178.814	0.00466834
-4.24002	-184.683	0.0048077
-4.20009	-184.461	0.00495035
-4.16866	-182.27	0.00460337
-4.13391	-185.828	0.00470369
-4.09221	-185.911	0.00511751
-4.05946	-188.514	0.0051163
-4.02468	-184.04	0.00450866
-3.98874	-186.736	0.00534959
-3.95324	-188.036	0.00460285
-3.91878	-185.463	0.00517683
-3.88384	-191.467	0.00410796
-3.84711	-189.178	0.00490049
-3.81333	-189.537	0.00494125
-3.77584	-188.746	0.00449676
-3.74213	-188.869	0.00509644
-3.70592	-188.501	0.00424465
-3.67166	-189.169	0.00489441
-3.6382	-191.694	0.004428
-3.60248	-187.722	0.00525492
-3.56625	-191.911	0.0051255
-3.53002	-194.282	0.00629802
-3.49701	-191.307	0.00469361
-3.4593	-192.156	0.00551623
-3.42535	-192.792	0.00578598
-3.38762	-190.363	0.00511881
-3.35363	-194.727	0.00514376
-3.31294	-193.164	0.00462645
-3.27969	-196.285	0.00508524
-3.24221	-194.696	0.0057913
-3.20773	-194.57	0.00493168
-3.16728	-196.956	0.00531346
-3.13029	-195.842	0.00515975
-3.09603	-197.679	0.00577222
-3.06181	-198.383	0.00386932
-3.02533	-196.423	0.00423786
-2.98761	-197.282	0.00412819
-2.95238	-196.379	0.00436232
-2.91789	-197.007	0.00446205
-2.88491	-196.185	0.00579341
-2.84747	-194.664	0.00433586
-2.81372	-198.478	0.0044135
-2.77902	-197.004	0.00522554
-2.74505	-196.628	0.00429285
-2.70882	-194.867	0.0046509
-2.67479	-196.922	0.00475324
-2.63928	-201.681	0.00519683
-2.60405	-199.637	0.00577403
-2.56831	-201.16	0.00512228
-2.53315	-202.44	0.00472499
-2.50064	-202.626	0.00443647
-2.46589	-202.099	0.00370452
-2.43115	-201.704	0.00451204
-2.3967	-201.868	0.00414546
-2.36345	-197.773	0.00560131
-2.32677	-204.146	0.00539413
-2.29179	-203.586	0.00485081
-2.25804	-200.484	0.0051216
-2.22128	-205.06	0.00439252
-2.1858	-201.885	0.00420495
-2.15108	-203.195	0.00411295
-2.11512	-202.929	0.00555012
-2.07762	-202.981	0.00450351
-2.04516	-203.043	0.00510904
-2.00867	-205.723	0.00437372
-1.9747	-207.15	0.00447467
-1.94047	-202.381	0.00545791
-1.90098	-202.25	0.00418454
-1.86753	-203.653	0.00511981
-1.83354	-206.518	0.00523195
-1.79481	-206.248	0.00401226
-1.76406	-207.387	0.00498585
-1.72984	-203.983	0.00432736
-1.6931	-202.231	0.00451044
-1.65815	-204.449	0.00440651
-1.62367	-205.731	0.00381464
-1.58867	-203.884	0.00508678
-1.55469	-205.669	0.00473218
-1.52299	-204.506	0.00435588
-1.4882	-206.654	0.00367521
-1.4535	-205.115	0.00485544
-1.41979	-203.219	0.00416933
-1.38479	-207.302	0.00416535
-1.35008	-204.737	0.0048074
-1.31358	-206.086	0.00404599
-1.27907	-205.498	0.00424002
-1.24483	-207.454	0.00428824
-1.21335	-204.397	0.00467386
-1.17563	-206.098	0.00474798
-1.14189	-202.726	0.00413685
-1.10643	-204.671	0.00306754
-1.07095	-206.931	0.00409953
-1.03225	-205.365	0.00461534
-1.00074	-207.607	0.00476278
-0.96524	-205.993	0.00427464
-0.932279	-202.483	0.00345507
-0.898795	-204.811	0.0038713
-0.86376	-208.068	0.00383725
-0.827494	-204.756	0.00356452
-0.794511	-207.216	0.00414024
-0.760809	-204.386	0.00368183
-0.72806	-201.804	0.00319013
-0.695101	-202.86	0.0035302
-0.659355	-202.794	0.00431599
-0.624628	-201.736	0.00428203
-0.590395	-203.754	0.00340104
-0.5559	-203.509	0.00428766
-0.52341	-201.93	0.00430458
-0.488939	-199.944	0.00355269
-0.455193	-201.607	0.00381465
-0.420406	-199.535	0.00443421
-0.385694	-199.528	0.00470899
-0.349949	-197.22	0.00363571
-0.317752	-199.921	0.00496403
-0.283728	-197.378	0.00385258
-0.248503	-192	0.00348428
-0.216232	-186.747	0.00320403
-0.181714	-181.41	0.00374093
-0.149029	-180.097	0.0038717
-0.11352	-173.638	0.00315056
-0.0810081	-156.556	0.0034758
-0.0497941	-131.623	0.00314042
-0.0167622	-55.5592	0.00106778
0.0167472	55.1888	0.00111914
0.0509412	130.882	0.00267217
0.0818362	154.027	0.00294655
0.115706	173.739	0.00283326
0.150095	178.885	0.00374979
0.182549	185.82	0.00353778
0.214425	190.28	0.00377236
0.252841	194.792	0.00390024
0.28428	193.479	0.00352336
0.315277	196.693	0.0041491
0.351267	196.123	0.00368911
0.385773	197.391	0.00465713
0.424824	196.455	0.00343747
0.455094	199.965	0.00310549
0.490895	201.275	0.00311413
0.524099	201.798	0.00458626
0.557836	199.025	0.00437111
0.591834	204.294	0.00310414
0.623309	201.4	0.0039395
0.659026	203.539	0.00383318
0.693323	202.602	0.00494742
0.726752	201.177	0.00377866
0.760764	206.869	0.00390501
0.797222	206.573	0.00464024
0.831973	204.153	0.00450897
0.863929	205.815	0.0035473
0.899225	206.059	0.00412695
0.932205	206.369	0.00407254
0.964945	205.217	0.00420468
0.997942	206.813	0.00462907
1.03463	205.847	0.00428179
1.06789	209.088	0.00546028
1.10512	205.663	0.0038031
1.13811	205.206	0.00446638
1.17285	203.793	0.0040618
1.20957	203.815	0.00429273
1.24379	203.385	0.00492514
1.27928	203.578	0.00432176
1.31299	204.425	0.00366979
1.34877	206.429	0.00383802
1.3835	204.379	0.00423469
1.41821	206.384	0.00385259
1.45367	208.411	0.00403599
1.48817	201.089	0.00403338
1.52268	205.535	0.00374698
1.55665	205.256	0.00434306
1.59186	202.753	0.00441031
1.62762	204.246	0.00399743
1.66186	205.423	0.0039171
1.6973	204.017	0.00507021
1.73254	204.012	0.00399265
1.76653	206.385	0.00474876
1.80201	204.295	0.00496036
1.83553	203.145	0.00411256
1.86924	202.08	0.00376197
1.9047	202.875	0.00442351
1.93969	203.509	0.0050427
1.97169	204.078	0.00492312
2.00963	202.73	0.0045076
2.04385	198.901	0.00409704
2.08064	203.367	0.00538206
2.11435	198.186	0.00402426
2.14731	201.856	0.0043502
2.18129	201.9	0.00481143
2.21501	203.496	0.0041077
2.25252	197.97	0.00549922
2.28805	198.756	0.00408038
2.32655	200.214	0.0053965
2.35774	201.103	0.00340435
2.39171	199.837	0.00372365
2.42839	197.778	0.00414336
2.4664	199.15	0.00600746
2.49792	197.852	0.00393332
2.53214	196.912	0.00596621
2.56809	198.55	0.00474696
2.60183	199.316	0.00505827
2.63877	199.704	0.00446473
2.67309	200.876	0.00430251
2.70958	196.659	0.00390807
2.74382	198.102	0.00456991
2.77804	196.829	0.00476737
2.81449	197.453	0.00454306
2.85152	193.863	0.00449114
2.8855	197.065	0.00407259
2.91821	196.585	0.00435638
2.95669	196.485	0.004536
2.9914	193.078	0.00500703
3.02617	192.722	0.00509018
3.06091	196.395	0.00480727
3.0946	193.364	0.00432396
3.12835	195.692	0.00395488
3.16436	195.133	0.00532459
3.1988	197.078	0.0048948
3.23355	194.291	0.00431409
3.27153	195.494	0.00392789
3.30678	192.029	0.00466436
3.34251	190.385	0.00398174
3.38098	192.258	0.00433393
3.42069	191.907	0.00389468
3.451425	188.538	0.00418172
3.48815	191.753	0.00549866
3.52162	186.923	0.00545369
3.55764	187.067	0.00451959
3.59586	190.423	0.0046262
3.63583	187.246	0.00539403
3.67483	189.99	0.00471087
3.7088	187.408	0.00540632
3.74426	186.994	0.00377477
3.77976	186.922	0.00545232
3.81422	184.7	0.00409224
3.8492	186.194	0.00543266
3.88594	185.181	0.00358518
3.91891	186.906	0.00516624
3.95913	187.127	0.00600279
3.99285	186.158	0.00469876
4.03037	185.354	0.00456528
4.06387	183.749	0.00571282
4.10159	187.108	0.00505702
4.13507	184.15	0.00524874
4.17005	181.226	0.0051829
4.20402	181.999	0.00586811
4.24003	179.021	0.00589837
4.27699	180.961	0.00456441
4.31321	180.694	0.00517157
4.35345	184.546	0.00595385
4.38643	179.525	0.00522139
4.42292	179.993	0.00536139
4.45618	180.131	0.00519427
4.49145	180.568	0.00507116
4.52567	178.502	0.00512931
4.56166	176.965	0.00523255
4.59489	179.265	0.00506882
4.63161	177.723	0.00557337
4.66609	177.585	0.00551382
4.70005	179.813	0.00501966
4.73754	174.751	0.00443957
4.7725	176.098	0.00512927
4.80852	173.773	0.00560038
4.84321	176.723	0.00510833
4.88146	173.808	0.00531685
4.92145	172.893	0.005686
4.95272	173.935	0.00460316
4.98819	174.124	0.00511771
5.02565	175.218	0.00594292
5.0636	174.639	0.00570546
5.0971	172.08	0.00502878
5.13111	172.841	0.00572028
5.16757	171.54	0.00664492
5.20132	167.914	0.0057469
5.24051	171.16	0.00528746
5.27374	165.446	0.00494756
5.3075	167.722	0.00439687
5.34549	165.472	0.00533204
5.38247	168.384	0.00557599
5.41873	166.585	0.00476394
5.45391	165.139	0.00586894
5.49191	166.21	0.00593025
5.52663	167.097	0.00535304
5.56213	163.698	0.00517008
5.5961	166.179	0.00432749
5.63381	164.853	0.00591288
5.66979	166.237	0.00522089
5.70402	164.91	0.00552906
5.74249	165.336	0.00459102
5.77451	160.569	0.00593452
5.80902	160.45	0.00556861
5.84926	162.87	0.00544774
5.88297	156.712	0.00552232
5.91795	160.667	0.00601603
5.95497	162.454	0.00532009
5.99091	159.162	0.00526075
6.02766	161.027	0.00615086
6.06263	158.351	0.00502884
6.09959	160.881	0.00596637
6.13258	155.149	0.00618527
6.17132	154.178	0.00637411
6.20505	155.692	0.00526144
6.2418	153.991	0.00600967
6.28309	155.522	0.00626574
6.31505	153.185	0.00800721
6.34728	154.013	0.00677078
6.386	150.595	0.0068955
6.42201	154.236	0.00506741
6.45821	149.523	0.00541067
6.49494	152.185	0.00547472
6.52969	153.152	0.00657813
6.56718	152.529	0.00623668
6.60563	145.531	0.00606198
6.6406	150.007	0.0054924
6.6776	153.316	0.00612105
6.71587	147.899	0.00488939
6.75183	148.809	0.00587194
6.78807	150.027	0.00668
6.82127	147.871	0.00712045
6.86002	149.102	0.00732506
6.89277	143.091	0.00518252
6.92998	149.833	0.00515422
6.96397	145.76	0.00556025
7.00545	143.638	0.00504414
7.04243	142.745	0.00799555
7.0754	144.499	0.00770589
7.11115	143.326	0.00587693
7.14639	145.523	0.00597485
7.18088	144.314	0.00534508
7.21714	142.937	0.00733816
7.25284	141.047	0.00532479
7.28904	141.522	0.00618077
7.32456	140.696	0.00687946
7.35728	138.4	0.00790949
7.39474	136.697	0.00520047
7.42998	137.562	0.0062406
7.46744	136.524	0.00651098
7.50596	134.086	0.0061523
7.54091	137.022	0.00730095
7.57569	136.164	0.0070734
7.61194	135.201	0.00659926
7.64996	136.158	0.00737034
7.68743	138.241	0.00565003
7.72463	135.364	0.0073029
7.75912	131.923	0.00709549
7.79539	135.363	0.0072339
7.8361	132.791	0.00714375
7.86983	130.322	0.00677471
7.90407	130.228	0.00857568
7.94204	129.751	0.00753617
7.97575	128.147	0.00628512
8.01199	132.427	0.00711788
8.04954	129.335	0.00728181
8.08625	126.968	0.00650186
8.12057	129.577	0.00614095
8.15676	126.871	0.00634664
8.19123	127.973	0.00781895
8.22648	126.64	0.00628938
8.26172	123.687	0.00653312
8.29968	123.598	0.00723084
8.33518	125.009	0.00796706
8.37362	124.699	0.00666059
8.40611	122.204	0.0083873
8.44186	123.62	0.00670029
8.47662	122.181	0.00671298
8.51461	123.711	0.00745002
8.5446	119.561	0.00777594
8.57934	120.689	0.00714087
8.61432	116.792	0.00842794
8.64755	120.369	0.00774973
8.68502	120.223	0.00774143
8.71975	117.308	0.00722866
8.75498	118.824	0.00778598
8.78948	116.623	0.00973787
8.82296	115.56	0.00905096
8.85743	117.978	0.00860971
8.89138	115.613	0.00962744
8.92618	114.788	0.00825335
8.95915	118.385	0.00560893
8.99996	115.39	0.00892421