File: data/monolayers/nanoparticles/Ac_CoFe_C/vsm/rescale/AH11_LangevinSAXSscaled.xye
#Executed at: 2018-11-15 15:44:42.7018
#Loaded File	 = ../rawdata/DD226_2_HYST_350K_REPEAT.DAT
#particle info	 = Superball Model, r = 46.9421 A, p = 2.65743
#fit report	 = [[Fit Statistics]]
#    # fitting method   = leastsq
#    # function evals   = 25
#    # data points      = 579
#    # variables        = 3
#    chi-square         = 2874.57
#    reduced chi-square = 4.99058
#    Akaike info crit   = 933.765
#    Bayesian info crit = 946.849
#[[Variables]]
#    Ms:     35.0183 +/- 0.21624 (0.62%) (init = 43)
#    mu:     11886.5 +/- 236.284 (1.99%) (init = 11000)
#    chi:   -31.2896 +/- 0.16662 (0.53%) (init = -34)
#    sigMu:  0.357 (fixed)
#    T:      350 (fixed)
#[[Correlations]] (unreported correlations are < 0.100)
#    C(Ms, chi) = -0.921
#    C(Ms, mu)  = -0.805
#    C(mu, chi) =  0.673
#Ms Should	 = 151.564 kA/m
#Rescale Factor	 = 4.32812
#[[Data]]
#B/T	M/kAm-1	sM/kAm-1	M_raw/memu	sM_raw/memu
1.98997	-122.356	5.21487	-28.27	1.20488
1.97749	-124.956	3.96017	-28.8706	0.914984
1.96773	-126.596	4.90193	-29.2496	1.13258
1.95823	-126.096	4.23024	-29.1342	0.977385
1.94624	-123.235	4.17299	-28.473	0.964157
1.93625	-119.827	3.73764	-27.6856	0.863571
1.92524	-118.939	3.09757	-27.4806	0.715683
1.91423	-120.116	4.55764	-27.7524	1.05303
1.90451	-114.516	4.69426	-26.4585	1.0846
1.89505	-111.758	3.62322	-25.8215	0.837133
1.8803	-110.45	4.12698	-25.5191	0.953526
1.87081	-105.316	4.17789	-24.3328	0.965289
1.86057	-110.865	3.62563	-25.6149	0.837691
1.8483	-102.37	4.29543	-23.6524	0.992446
1.83705	-107.399	3.71499	-24.8141	0.858336
1.82632	-104.079	3.95526	-24.0471	0.91385
1.81658	-102.815	4.61947	-23.7551	1.06731
1.80759	-105.567	3.76257	-24.3909	0.869331
1.79634	-97.4608	4.08495	-22.518	0.943815
1.78509	-100.608	4.16041	-23.2451	0.961249
1.7756	-94.526	2.9817	-21.84	0.688912
1.76486	-93.2821	3.15395	-21.5525	0.728712
1.75459	-96.1521	4.16707	-22.2157	0.96279
1.7441	-94.9941	4.18515	-21.9481	0.966966
1.73335	-90.7657	3.80384	-20.9711	0.878865
1.72363	-91.677	3.73672	-21.1817	0.863357
1.71413	-87.8283	2.91962	-20.2925	0.674568
1.70286	-84.003	3.59369	-19.4086	0.830312
1.69265	-86.7246	3.62193	-20.0375	0.836837
1.68164	-84.3076	4.00313	-19.479	0.924911
1.67289	-80.3487	4.25845	-18.5643	0.983903
1.66443	-81.6023	3.12864	-18.854	0.722862
1.65441	-77.6921	3.82221	-17.9505	0.883111
1.64491	-77.5047	3.97411	-17.9072	0.918206
1.63169	-69.303	3.5306	-16.0123	0.815734
1.61994	-73.0799	3.86646	-16.8849	0.893334
1.61018	-71.3746	2.58243	-16.4909	0.596663
1.6002	-73.3209	3.092	-16.9406	0.714398
1.5907	-72.1082	3.26716	-16.6604	0.754868
1.58147	-66.9906	2.95725	-15.478	0.683265
1.57171	-63.963	3.32187	-14.7785	0.767509
1.56171	-66.2881	2.88046	-15.3157	0.665521
1.55074	-62.1674	2.81646	-14.3636	0.650736
1.53798	-59.1266	2.76974	-13.661	0.639941
1.52474	-60.7895	2.87187	-14.0452	0.663537
1.5155	-59.4145	3.25064	-13.7275	0.751051
1.50575	-59.7532	3.07472	-13.8058	0.710405
1.49524	-59.1217	3.36398	-13.6599	0.777238
1.48127	-54.3458	3.42538	-12.5564	0.791424
1.47078	-53.9673	2.58924	-12.469	0.598236
1.46027	-51.3511	3.38214	-11.8645	0.781433
1.45003	-47.8503	2.95894	-11.0557	0.683654
1.44005	-44.3092	3.01465	-10.2375	0.696527
1.42981	-44.3599	2.69103	-10.2492	0.621754
1.41982	-47.173	3.70207	-10.8992	0.855353
1.40731	-40.2354	3.81258	-9.29626	0.880886
1.39582	-42.5352	3.15769	-9.82763	0.729576
1.38256	-38.2253	3.17228	-8.83184	0.732946
1.37309	-35.4531	3.27999	-8.19132	0.757833
1.36184	-37.0568	3.40789	-8.56187	0.787383
1.35284	-34.0007	2.96839	-7.85575	0.685837
1.34208	-35.0172	2.96431	-8.09062	0.684894
1.33383	-32.3978	2.7779	-7.4854	0.641825
1.32084	-30.6517	3.48295	-7.08198	0.804725
1.31058	-28.7705	3.16014	-6.64733	0.73014
1.30008	-30.1496	2.58604	-6.96596	0.597497
1.28834	-24.5819	2.92354	-5.67956	0.675475
1.27558	-21.9294	2.28881	-5.06673	0.528823
1.26511	-23.7674	3.54933	-5.49139	0.820062
1.25435	-21.9251	3.0968	-5.06574	0.715506
1.24335	-21.4782	3.45561	-4.96248	0.798408
1.23186	-17.3399	3.61237	-4.00632	0.834627
1.22139	-17.0174	3.50289	-3.93182	0.809331
1.2109	-15.8312	2.38349	-3.65776	0.550699
1.20666	-11.6548	3.22677	-2.69281	0.745535
1.19443	-10.7597	2.66054	-2.48599	0.614709
1.18367	-7.90529	2.3513	-1.82649	0.54326
1.17093	-10.417	3.50268	-2.40681	0.809283
1.16068	-9.05157	2.51883	-2.09134	0.581969
1.15043	-7.39096	3.02745	-1.70766	0.699484
1.13943	-5.0053	2.96591	-1.15646	0.685265
1.12845	-2.32744	2.69689	-0.537747	0.623109
1.11694	-0.854991	3.13199	-0.197543	0.723637
1.10673	-0.984417	2.29461	-0.227447	0.530162
1.09496	1.58401	2.35222	0.365981	0.543472
1.08495	2.44354	2.81939	0.564573	0.651411
1.07448	3.7506	2.64526	0.866565	0.61118
1.06497	4.6614	2.81363	1.077	0.650082
1.05499	6.56405	2.59651	1.51661	0.599916
1.04573	7.52838	2.80823	1.73941	0.648834
1.03526	9.31156	2.70571	2.15141	0.625147
1.02473	13.5209	2.3842	3.12397	0.550862
1.01276	16.8196	2.46932	3.88613	0.570529
0.999764	13.5676	2.7962	3.13475	0.646053
0.989286	16.9887	2.60958	3.92518	0.602936
0.977057	14.7642	2.56195	3.41122	0.59193
0.967526	18.2305	2.64516	4.21211	0.611156
0.957551	20.1744	3.04146	4.66123	0.70272
0.946048	20.4396	2.91583	4.72252	0.673693
0.9358125	21.5797	2.51466	4.98593	0.581006
0.925327	24.4449	3.06421	5.64791	0.707977
0.915583	29.9067	3.01066	6.90986	0.695605
0.905072	25.6427	3.26828	5.92468	0.755127
0.895082	30.056	2.72381	6.94436	0.629327
0.885534	30.5237	2.3584	7.0524	0.544902
0.874278	30.9512	2.64462	7.15118	0.611031
0.86302	33.7699	2.56961	7.80244	0.593702
0.851292	35.9397	2.24202	8.30376	0.518011
0.839315	37.2198	2.84859	8.59953	0.658157
0.82831	37.24	2.98013	8.6042	0.688549
0.817804	39.7384	2.83701	9.18144	0.655482
0.807305	39.5813	2.67323	9.14513	0.617641
0.795798	42.5307	2.59651	9.82658	0.599917
0.784576	43.2696	2.32091	9.99731	0.536239
0.780849	45.5089	2.58878	10.5147	0.598129
0.766336	45.3713	2.82723	10.4829	0.653222
0.758092	45.0521	2.78515	10.4091	0.6435
0.748102	47.8178	2.12418	11.0482	0.490785
0.734339	49.4949	2.70999	11.4357	0.626135
0.72212	50.6076	2.80921	11.6927	0.64906
0.710116	53.679	2.7009	12.4024	0.624034
0.697121	51.8266	2.77687	11.9744	0.641587
0.687636	55.4306	2.39185	12.8071	0.55263
0.676385	55.108	2.54991	12.7325	0.589149
0.667402	57.2044	2.87046	13.2169	0.663212
0.657405	57.2174	2.72719	13.2199	0.63011
0.647151	60.0274	2.74666	13.8692	0.634608
0.63544	59.8226	2.41998	13.8218	0.559128
0.624924	60.1713	2.08519	13.9024	0.481778
0.615431	62.4805	3.02624	14.4359	0.699203
0.605416	63.8142	1.87869	14.7441	0.434066
0.594446	64.3542	2.98742	14.8688	0.690234
0.584696	65.5739	2.01432	15.1506	0.465402
0.57421	67.2485	2.37768	15.5376	0.549357
0.562443	69.9461	2.55794	16.1608	0.591004
0.552493	72.6553	2.40766	16.7868	0.556284
0.542738	69.6115	2.36159	16.0835	0.545639
0.533485	72.3795	2.65832	16.7231	0.614197
0.523229	73.8074	2.80221	17.053	0.647441
0.51248	74.8276	2.64216	17.2887	0.610464
0.504266	77.1178	2.58745	17.8178	0.597822
0.49147	75.8021	2.54953	17.5139	0.589061
0.481503	74.5739	2.52068	17.2301	0.582395
0.47124	78.2689	2.28934	18.0838	0.528944
0.460513	77.1589	2.51115	17.8273	0.580194
0.452019	78.2172	2.49626	18.0718	0.576754
0.442479	76.3232	2.47228	17.6342	0.571213
0.429477	79.3889	2.43986	18.3426	0.563722
0.415739	79.905	2.07345	18.4618	0.479065
0.404989	79.5099	2.1544	18.3705	0.497768
0.393979	83.6514	2.03745	19.3274	0.470748
0.382226	79.7558	2.19254	18.4273	0.50658
0.371978	81.2691	2.16542	18.777	0.500313
0.362748	83.3277	2.7268	19.2526	0.63002
0.353244	80.7638	1.79392	18.6602	0.41448
0.342517	83.8172	2.10802	19.3657	0.487052
0.33129	85.6938	2.78915	19.7993	0.644425
0.320031	84.7923	2.31413	19.591	0.534672
0.310285	86.4354	1.95485	19.9706	0.451663
0.300794	87.5344	1.85954	20.2246	0.429641
0.291052	87.1046	2.1438	20.1253	0.495319
0.278549	86.0376	2.20922	19.8787	0.510434
0.268044	88.1676	2.11696	20.3709	0.489117
0.257545	87.3012	1.64214	20.1707	0.379411
0.248056	88.2496	2.09252	20.3898	0.48347
0.237056	90.2038	1.93032	20.8413	0.445995
0.22579	85.0304	2.07483	19.646	0.479384
0.216331	88.9863	2.00856	20.56	0.464072
0.206333	84.1571	2.46727	19.4442	0.570055
0.196336	84.4861	1.9244	19.5203	0.444628
0.185821	87.2383	1.89443	20.1562	0.437703
0.174597	81.6833	2.41388	18.8727	0.55772
0.162819	86.0027	2.06987	19.8707	0.478237
0.152308	84.3203	2.14388	19.4819	0.495337
0.148305	83.8974	1.96703	19.3843	0.454477
0.135565	83.8515	2.14965	19.3736	0.49667
0.126086	83.4859	2.18669	19.2892	0.505228
0.11558	79.0257	1.76962	18.2586	0.408864
0.104066	77.2659	2.264	17.8521	0.523091
0.093101	78.1044	1.65995	18.0458	0.383527
0.0813378	77.7119	1.78961	17.9551	0.413484
0.0708459	74.6496	2.19927	17.2476	0.508134
0.0610896	71.037	2.01256	16.4129	0.464995
0.0523387	68.106	2.28918	15.7357	0.528907
0.0411002	64.505	2.14003	14.9037	0.494448
0.0295972	54.0398	2.04511	12.4857	0.472517
0.0188501	40.9599	1.97776	9.46367	0.456955
0.00962596	21.7668	2.14537	5.02915	0.495681
0.00112232	14.9092	2.08996	3.44472	0.48288
-0.00864722	-13.2334	1.78089	-3.05755	0.411468
-0.0188812	-35.6412	2.0274	-8.23478	0.468424
-0.0288496	-46.6218	2.1388	-10.7718	0.494164
-0.039824	-55.3119	2.3419	-12.7796	0.54109
-0.0495713	-63.1005	1.84068	-14.5792	0.425284
-0.0600327	-64.438	2.28468	-14.8882	0.527868
-0.0695145	-71.067	2.11182	-16.4198	0.48793
-0.0794813	-73.2322	2.24404	-16.9201	0.518478
-0.0887187	-73.834	2.2382	-17.0591	0.51713
-0.0986974	-76.0651	2.12031	-17.5746	0.489892
-0.108404	-77.971	2.2036	-18.015	0.509136
-0.118377	-77.6819	2.12374	-17.9482	0.490684
-0.128612	-82.0049	2.03015	-18.947	0.469061
-0.139815	-84.0298	1.98302	-19.4148	0.45817
-0.150546	-81.2109	1.81594	-18.7635	0.419567
-0.161495	-79.8513	2.42467	-18.4494	0.560213
-0.170223	-82.8272	1.86989	-19.137	0.432033
-0.179436	-83.5999	1.84242	-19.3155	0.425686
-0.190424	-85.5272	2.13177	-19.7608	0.492539
-0.202365	-85.2235	2.71615	-19.6906	0.627559
-0.214849	-85.988	1.80015	-19.8673	0.415918
-0.224308	-83.0634	2.18819	-19.1915	0.505576
-0.234036	-85.1655	2.08502	-19.6772	0.481739
-0.244271	-85.1037	2.03182	-19.663	0.469445
-0.254016	-85.2353	2.0244	-19.6934	0.467733
-0.263992	-84.1192	2.50513	-19.4355	0.578803
-0.273973	-82.9978	2.46053	-19.1764	0.568498
-0.284461	-84.0062	2.33565	-19.4094	0.539645
-0.294194	-82.5273	1.75666	-19.0677	0.405871
-0.305208	-80.9397	2.38881	-18.7009	0.551927
-0.316182	-83.6626	2.35621	-19.33	0.544396
-0.324963	-85.1639	2.20715	-19.6769	0.509954
-0.334694	-82.1061	2.08817	-18.9704	0.482466
-0.346198	-83.0021	2.44287	-19.1774	0.564417
-0.35571	-83.3974	2.37904	-19.2687	0.549671
-0.366707	-82.0392	2.43535	-18.9549	0.56268
-0.377722	-81.4134	1.8367	-18.8103	0.424365
-0.388761	-78.5158	2.16575	-18.1408	0.50039
-0.399275	-81.4816	2.12929	-18.8261	0.491965
-0.410022	-79.4619	2.23548	-18.3594	0.516502
-0.41952	-76.635	2.1791	-17.7063	0.503475
-0.430017	-76.1099	2.01596	-17.585	0.465783
-0.44079	-78.8492	2.22236	-18.2179	0.513469
-0.453289	-75.5814	2.26776	-17.4628	0.523958
-0.463806	-75.358	2.1281	-17.4112	0.49169
-0.474066	-75.0204	2.10471	-17.3332	0.486287
-0.483577	-74.1797	2.37939	-17.139	0.549751
-0.493779	-73.6542	2.38319	-17.0176	0.550629
-0.50455	-72.7818	2.539	-16.816	0.586628
-0.515033	-70.7267	2.405	-16.3412	0.555668
-0.524056	-70.0682	2.41096	-16.1891	0.557046
-0.534548	-71.1472	2.10176	-16.4383	0.485605
-0.545042	-67.6719	2.72887	-15.6354	0.630497
-0.556277	-69.3852	2.45747	-16.0313	0.567791
-0.566267	-64.867	2.15044	-14.9873	0.496852
-0.575014	-65.0445	2.74915	-15.0283	0.635183
-0.586258	-66.2807	2.06473	-15.314	0.477051
-0.595517	-65.0399	2.13778	-15.0273	0.493928
-0.604767	-62.2365	2.58775	-14.3796	0.597892
-0.61626	-62.4033	2.73606	-14.4181	0.632159
-0.625736	-57.9627	2.79219	-13.3921	0.645128
-0.634495	-60.397	2.72821	-13.9546	0.630345
-0.645999	-57.4898	2.46089	-13.2828	0.568582
-0.658494	-57.3507	2.66086	-13.2507	0.614784
-0.669507	-57.0894	2.11702	-13.1903	0.48913
-0.679731	-56.1441	2.59308	-12.9719	0.599123
-0.690965	-51.9976	2.98997	-12.0139	0.690823
-0.701722	-53.1762	2.97394	-12.2862	0.687121
-0.710981	-51.7955	3.14095	-11.9672	0.725707
-0.722208	-52.2231	2.56294	-12.066	0.592159
-0.730722	-48.2712	2.95722	-11.1529	0.683258
-0.741683	-47.9729	2.45349	-11.084	0.566871
-0.752448	-44.8257	2.78582	-10.3568	0.643655
-0.764195	-44.9449	3.30064	-10.3844	0.762602
-0.773198	-43.5516	2.986	-10.0625	0.689906
-0.783192	-41.1906	3.37692	-9.51696	0.780228
-0.793422	-39.5482	2.61912	-9.1375	0.605141
-0.803425	-38.7875	3.0334	-8.96173	0.700857
-0.818171	-37.5166	2.53728	-8.66811	0.586231
-0.82766	-36.2417	3.9123	-8.37353	0.903926
-0.837919	-37.075	3.19728	-8.56607	0.738722
-0.849422	-33.2212	3.34393	-7.67566	0.772605
-0.860407	-34.5431	3.17585	-7.98109	0.733771
-0.873153	-31.6192	2.86603	-7.30553	0.662188
-0.883878	-29.3949	2.63501	-6.7916	0.608812
-0.894922	-28.8414	3.75862	-6.66372	0.868419
-0.904176	-26.1196	3.23498	-6.03486	0.747432
-0.916184	-27.6522	3.54052	-6.38895	0.818026
-0.926922	-25.2634	3.75961	-5.83704	0.868646
-0.936933	-19.0751	3.01503	-4.40724	0.696614
-0.947435	-21.3157	2.88867	-4.92493	0.667417
-0.95118	-20.7318	2.89373	-4.79001	0.668587
-0.96915	-18.1668	2.29133	-4.19738	0.529406
-0.979402	-17.6679	4.38259	-4.08212	1.01258
-0.989401	-14.5943	3.02335	-3.37197	0.698535
-1.00116	-13.9165	2.49871	-3.21537	0.57732
-1.01037	-13.0406	3.70775	-3.013	0.856664
-1.02163	-11.057	2.48068	-2.55468	0.573154
-1.03039	-10.6947	2.30329	-2.47097	0.532169
-1.04061	-5.68378	3.18105	-1.31322	0.734973
-1.05035	-8.88815	2.70924	-2.05358	0.625962
-1.0646	-8.66776	3.24177	-2.00266	0.749001
-1.07734	-1.88043	3.03216	-0.434468	0.700571
-1.08811	-0.832618	3.08933	-0.192374	0.713781
-1.09835	-0.0940566	2.92312	-0.0217315	0.675378
-1.10859	2.20326	2.44205	0.509056	0.564227
-1.11835	1.90548	2.88542	0.440255	0.666668
-1.12832	3.11328	2.37093	0.719315	0.547796
-1.13908	4.49242	3.57817	1.03796	0.826725
-1.15082	7.55139	3.65301	1.74473	0.844016
-1.16231	7.23971	3.18718	1.67271	0.736389
-1.17303	7.97012	2.98812	1.84147	0.690395
-1.18381	10.9524	2.83321	2.53053	0.654605
-1.19377	11.4948	3.85307	2.65583	0.89024
-1.20425	10.4505	3.84388	2.41455	0.888118
-1.21478	14.0752	3.00796	3.25203	0.694979
-1.22524	15.6925	2.4041	3.62571	0.555459
-1.23597	19.6672	2.93509	4.54405	0.678144
-1.24501	18.0199	2.54081	4.16344	0.587046
-1.25573	20.0577	2.61911	4.63428	0.605139
-1.26622	25.466	3.01695	5.88384	0.697057
-1.27574	26.0406	3.60007	6.01661	0.831785
-1.28847	31.5825	3.80459	7.29703	0.87904
-1.29872	29.1432	4.2171	6.73346	0.974348
-1.30899	29.0151	3.53569	6.70384	0.81691
-1.31922	34.6429	3.80978	8.00414	0.880237
-1.32947	32.5824	2.38055	7.52806	0.550019
-1.33947	35.3625	3.68435	8.17041	0.851257
-1.34973	41.2114	3.89973	9.52176	0.901022
-1.36074	35.3301	2.80892	8.16292	0.648993
-1.37323	39.2586	3.51634	9.07059	0.812441
-1.38372	39.6029	3.29443	9.15013	0.761169
-1.39448	40.2772	3.19652	9.30594	0.738546
-1.40547	47.4265	3.38784	10.9577	0.782751
-1.41623	46.9822	3.34784	10.8551	0.773508
-1.42874	48.9928	2.71971	11.3196	0.628381
-1.43896	51.8211	3.3854	11.9731	0.782186
-1.45144	52.2236	3.57214	12.0661	0.825333
-1.46343	48.5916	4.20917	11.2269	0.972516
-1.47493	52.3764	3.69244	12.1014	0.853127
-1.48569	57.855	4.70446	13.3672	1.08695
-1.49864	57.5818	3.39606	13.3041	0.784649
-1.50843	56.8966	4.33994	13.1458	1.00273
-1.51964	62.7313	3.41215	14.4939	0.788368
-1.53016	58.7264	3.13609	13.5686	0.724583
-1.5419	61.2425	3.84774	14.1499	0.889009
-1.5514	63.7287	3.72343	14.7243	0.860288
-1.55939	65.5413	3.83693	15.1431	0.886511
-1.5706	65.0064	3.32233	15.0195	0.767614
-1.58157	67.9851	3.41476	15.7078	0.78897
-1.59362	69.9523	2.72415	16.1623	0.629406
-1.60711	71.5926	3.21663	16.5412	0.743193
-1.61682	70.9436	3.8634	16.3913	0.892627
-1.62656	76.7385	4.56093	17.7302	1.05379
-1.63554	82.0639	4.24842	18.9606	0.981586
-1.64555	77.9062	3.98658	18	0.921087
-1.65504	79.2475	3.74274	18.3099	0.86475
-1.66681	77.4739	4.02494	17.9001	0.929951
-1.67775	83.8787	3.8094	19.3799	0.88015
-1.68802	87.4812	5.38204	20.2123	1.2435
-1.69901	88.9195	3.99752	20.5446	0.923616
-1.70951	89.9107	5.33558	20.7736	1.23277
-1.72076	92.4747	3.3347	21.366	0.770473
-1.72978	90.4474	4.25165	20.8976	0.982331
-1.74152	92.3372	4.03447	21.3342	0.932153
-1.75149	91.6338	4.02833	21.1717	0.930734
-1.76572	98.5421	4.02551	22.7679	0.930082
-1.77728	96.004	4.2609	22.1814	0.984469
-1.78697	97.5753	4.83057	22.5445	1.11609
-1.79797	99.1333	3.9331	22.9044	0.90873
-1.80851	102.445	4.74696	23.6696	1.09677
-1.81971	104.337	4.20341	24.1068	0.971186
-1.8312	108.668	3.93915	25.1073	0.910128
-1.8422	107.161	4.16475	24.7591	0.962253
-1.85346	110.023	3.92096	25.4204	0.905926
-1.86319	112.93	4.23141	26.0921	0.977654
-1.87469	111.897	4.60196	25.8535	1.06327
-1.88497	113.137	4.49912	26.1399	1.03951
-1.89666	112.127	4.60013	25.9067	1.06285
-1.90891	119.273	4.66913	27.5577	1.07879
-1.91967	118.347	4.23293	27.3438	0.978005
-1.93117	122.215	3.88658	28.2375	0.897983
-1.9394	125.57	4.29338	29.0126	0.991972
-1.94887	123.988	5.57026	28.6471	1.28699
-1.95913	127.597	5.5988	29.481	1.29359
-1.96963	127.126	3.75321	29.3722	0.867167
-1.98158	127.146	4.62954	29.3767	1.06964
-1.99335	131.814	3.39648	30.4551	0.784747
-1.99177	126.559	5.22837	29.2411	1.208
-1.98076	129.819	3.12468	29.9942	0.721948
-1.969	129.145	4.30677	29.8385	0.995066
-1.96003	126.899	3.36136	29.3197	0.776633
-1.94852	127.85	3.46109	29.5393	0.799673
-1.9358	120.733	3.37761	27.895	0.780387
-1.9248	119.966	3.73433	27.7178	0.862805
-1.91505	119.384	3.56628	27.5834	0.823979
-1.90378	117.071	4.24381	27.0489	0.98052
-1.89307	114.042	3.0683	26.3491	0.708921
-1.88083	115.706	4.06975	26.7335	0.940303
-1.87209	115.424	3.35045	26.6683	0.774112
-1.86158	113.061	4.26031	26.1224	0.984332
-1.85035	109.54	3.11576	25.3089	0.719887
-1.84135	106.057	3.82506	24.5042	0.883768
-1.83109	108.298	3.71069	25.022	0.857345
-1.81862	106.616	4.06876	24.6333	0.940075
-1.80686	102.321	3.64069	23.6411	0.841172
-1.79261	102.117	3.81034	23.5938	0.880367
-1.78262	100.14	4.61938	23.137	1.06729
-1.77215	95.9133	4.06469	22.1605	0.939134
-1.75989	99.0759	3.51195	22.8912	0.811427
-1.74814	95.4504	3.08542	22.0535	0.712878
-1.73638	91.3564	3.80195	21.1076	0.878429
-1.72513	90.8556	2.91965	20.9919	0.674576
-1.71417	86.5282	4.00581	19.9921	0.925531
-1.70415	85.8432	4.01449	19.8338	0.927537
-1.69266	87.4975	3.7615	20.216	0.869083
-1.68218	87.4844	3.84917	20.213	0.889339
-1.66994	83.2938	3.39036	19.2448	0.783332
-1.6607	81.023	3.81691	18.7201	0.881886
-1.64819	81.135	3.60071	18.746	0.831932
-1.63598	75.3356	3.33391	17.4061	0.770289
-1.62722	77.0844	3.39454	17.8101	0.784297
-1.61546	74.7707	3.13616	17.2755	0.724601
-1.60597	71.7198	3.73455	16.5707	0.862856
-1.59222	71.861	3.63953	16.6033	0.840903
-1.58099	69.2167	3.76658	15.9923	0.870258
-1.56925	63.3257	3.31855	14.6312	0.76674
-1.55925	66.9528	2.3798	15.4693	0.549846
-1.54928	63.8845	2.71931	14.7603	0.628289
-1.53952	62.219	2.99296	14.3755	0.691514
-1.52803	61.5796	3.22832	14.2278	0.745893
-1.51704	59.3705	3.26993	13.7174	0.755508
-1.50678	56.1392	2.90415	12.9708	0.670994
-1.49605	55.8736	3.58339	12.9094	0.827933
-1.48404	54.7182	2.85518	12.6425	0.65968
-1.47454	52.9114	3.54873	12.225	0.819924
-1.46431	47.5851	3.59348	10.9944	0.830263
-1.45356	49.7036	2.76749	11.4839	0.639421
-1.43883	45.4553	3.68375	10.5023	0.85112
-1.42558	46.7967	3.40669	10.8122	0.787106
-1.41462	47.0066	3.26497	10.8607	0.754361
-1.40435	42.2401	3.45894	9.75946	0.799177
-1.3901	45.5542	3.2375	10.5252	0.748014
-1.37788	38.6519	3.25101	8.93042	0.751137
-1.36637	40.6953	3.27741	9.40253	0.757236
-1.35563	36.9924	3.57269	8.54699	0.825459
-1.34539	32.003	3.16828	7.39419	0.732022
-1.33383	31.469	3.51637	7.27081	0.812447
-1.32409	32.3531	2.9765	7.47509	0.687711
-1.31288	30.7217	3.82391	7.09815	0.883503
-1.30361	30.0919	3.33776	6.95264	0.771179
-1.29312	26.0275	3.11146	6.01357	0.718893
-1.28011	27.98	3.07755	6.46469	0.711059
-1.26811	22.9858	3.29165	5.31081	0.760525
-1.25786	27.5673	2.65598	6.36933	0.613657
-1.24765	21.6867	2.7473	5.01065	0.634756
-1.23888	14.6454	3.14177	3.38378	0.725897
-1.22815	18.2601	2.79792	4.21894	0.646451
-1.21643	16.1578	3.00116	3.73322	0.69341
-1.20616	13.7259	3.22024	3.17132	0.744027
-1.19468	14.0683	2.38643	3.25044	0.551377
-1.18419	12.9191	3.42371	2.98492	0.791038
-1.17343	9.19434	2.38608	2.12433	0.551296
-1.16244	7.47521	2.67572	1.72713	0.618218
-1.15019	8.3916	2.27805	1.93885	0.526337
-1.13667	4.30977	3.12397	0.995759	0.721783
-1.12447	3.59298	2.44106	0.830147	0.564
-1.11297	6.17836	2.47955	1.42749	0.572894
-1.10098	-0.223738	2.36542	-0.0516941	0.546522
-1.08875	-0.311047	2.28293	-0.0718666	0.527464
-1.07775	-2.74424	2.4611	-0.634048	0.56863
-1.067	-7.09401	2.61902	-1.63905	0.605118
-1.05502	-7.21872	2.526	-1.66786	0.583626
-1.04548	-9.80983	2.57002	-2.26653	0.593796
-1.03452	-7.88768	2.182	-1.82242	0.504146
-1.02452	-10.2485	2.10898	-2.36788	0.487273
-1.01527	-15.9083	2.33834	-3.67557	0.540267
-1.00453	-12.8131	2.29416	-2.96043	0.530059
-0.990058	-17.6802	2.73577	-4.08496	0.632091
-0.97882	-17.7191	2.79862	-4.09395	0.646612
-0.96756	-17.1544	2.4096	-3.96348	0.556731
-0.954814	-20.9897	2.63719	-4.8496	0.609315
-0.945068	-19.406	2.98485	-4.4837	0.689642
-0.933574	-22.3445	3.06992	-5.16262	0.709296
-0.924583	-23.8193	2.24951	-5.50338	0.519742
-0.912826	-27.3876	3.28154	-6.32782	0.75819
-0.902331	-29.2308	2.75384	-6.75368	0.636267
-0.886532	-29.6216	2.634	-6.84398	0.608577
-0.875277	-29.5766	2.8558	-6.83359	0.659824
-0.86505	-29.8218	2.73268	-6.89023	0.631378
-0.854036	-31.7052	3.28748	-7.32539	0.759562
-0.844543	-34.4649	3.23582	-7.96302	0.747626
-0.83406	-34.02	2.39323	-7.86021	0.552948
-0.823817	-37.835	2.23143	-8.74166	0.515566
-0.812583	-39.0947	2.60251	-9.03271	0.601302
-0.799806	-42.1695	2.23293	-9.74314	0.515911
-0.788814	-42.1643	2.87117	-9.74193	0.663375
-0.776838	-44.8184	2.64551	-10.3552	0.611237
-0.76735	-43.9138	3.24977	-10.1461	0.750849
-0.755114	-41.1298	2.61266	-9.50293	0.603648
-0.745091	-47.9638	2.88452	-11.0819	0.666459
-0.734111	-48.1059	2.62376	-11.1147	0.606212
-0.724368	-49.754	2.1984	-11.4955	0.507934
-0.714125	-51.4527	2.48596	-11.888	0.574374
-0.704116	-50.227	2.65513	-11.6048	0.613459
-0.693866	-53.3005	2.34485	-12.3149	0.541771
-0.682868	-56.6414	2.46331	-13.0868	0.569139
-0.670868	-53.6296	2.68984	-12.391	0.62148
-0.659394	-55.6377	2.54428	-12.8549	0.587848
-0.644644	-57.7959	2.90098	-13.3536	0.670262
-0.634157	-57.6362	2.27012	-13.3167	0.524504
-0.624397	-62.5382	2.08864	-14.4493	0.482573
-0.614389	-64.3425	2.84699	-14.8661	0.657788
-0.605181	-61.7827	2.58002	-14.2747	0.596106
-0.593926	-66.6214	2.4313	-15.3927	0.561745
-0.583142	-64.4568	2.16878	-14.8926	0.50109
-0.573172	-66.3773	2.06731	-15.3363	0.477646
-0.563688	-67.8984	2.36948	-15.6877	0.547461
-0.553939	-67.4097	2.33349	-15.5748	0.539147
-0.542694	-68.9042	2.6527	-15.9201	0.612897
-0.533209	-70.2792	2.46369	-16.2378	0.569229
-0.522214	-71.4588	2.32327	-16.5104	0.536784
-0.513465	-72.6659	2.22716	-16.7892	0.514578
-0.500478	-73.6776	2.05619	-17.023	0.475076
-0.485716	-75.0618	2.56861	-17.3428	0.59347
-0.476462	-76.2541	2.19865	-17.6183	0.50799
-0.467729	-78.3219	2.56627	-18.096	0.592928
-0.456242	-77.7636	2.19966	-17.9671	0.508224
-0.444719	-78.3495	2.41243	-18.1024	0.557386
-0.433954	-77.1735	2.2319	-17.8307	0.515673
-0.42396	-78.7875	2.36394	-18.2036	0.546181
-0.413452	-78.4838	2.115	-18.1334	0.488664
-0.403471	-80.6135	2.05845	-18.6255	0.475599
-0.390985	-81.8746	2.02881	-18.9169	0.468751
-0.378733	-84.0335	2.11807	-19.4157	0.489373
-0.367475	-83.4755	1.8633	-19.2868	0.430509
-0.355207	-82.6129	2.22408	-19.0875	0.513867
-0.342217	-83.2832	2.34716	-19.2423	0.542305
-0.33151	-82.0269	2.21951	-18.9521	0.512811
-0.32076	-83.0501	2.11866	-19.1885	0.48951
-0.31075	-83.9768	2.08737	-19.4026	0.482282
-0.300499	-81.5404	2.21785	-18.8397	0.512427
-0.288007	-84.9124	2.22825	-19.6188	0.51483
-0.277274	-85.3061	1.95909	-19.7097	0.452642
-0.266258	-86.3484	1.78468	-19.9505	0.412345
-0.256275	-89.6429	2.11411	-20.7117	0.488458
-0.245529	-85.2905	2.45869	-19.7061	0.568074
-0.235029	-87.7933	1.99615	-20.2844	0.461204
-0.225769	-86.7009	1.81562	-20.032	0.419493
-0.21452	-86.531	1.70187	-19.9927	0.393211
-0.204024	-87.1223	1.85102	-20.1294	0.427674
-0.193038	-87.0445	1.84503	-20.1114	0.42629
-0.183023	-84.5312	1.72336	-19.5307	0.398178
-0.17204	-84.0563	2.30333	-19.421	0.532178
-0.161763	-83.9192	2.68219	-19.3893	0.619711
-0.151778	-82.4268	2.29093	-19.0445	0.529311
-0.143766	-84.5413	2.03672	-19.533	0.470579
-0.133001	-82.524	2.31936	-19.0669	0.53588
-0.123041	-79.4112	2.10052	-18.3477	0.485318
-0.112017	-79.0555	2.12953	-18.2655	0.492021
-0.101547	-80.7164	2.34881	-18.6493	0.542685
-0.0932714	-78.0522	2.3191	-18.0337	0.535821
-0.0830221	-75.9886	1.87332	-17.5569	0.432825
-0.0730375	-73.9098	1.47823	-17.0766	0.34154
-0.062792	-70.658	1.84404	-16.3253	0.42606
-0.0505378	-69.5321	2.30626	-16.0652	0.532854
-0.0390353	-61.5714	2.38659	-14.2259	0.551415
-0.0280409	-49.589	2.09694	-11.4574	0.484491
-0.0170341	-38.3307	1.88091	-8.85619	0.43458
-0.00605866	-17.9506	2.52634	-4.14743	0.583704
0.00445078	8.75404	2.02366	2.02259	0.46756
0.01667	32.1639	2.03951	7.43136	0.471222
0.0256743	46.2328	2.20219	10.682	0.508809
0.0361617	56.0938	1.81347	12.9603	0.418997
0.0461225	65.0703	2.16579	15.0343	0.5004
0.0548805	66.9934	1.69397	15.4786	0.391387
0.0651105	71.0596	1.92472	16.4181	0.444701
0.074842	74.7099	1.98938	17.2615	0.459641
0.0865491	76.2779	1.87113	17.6238	0.43232
0.0977612	80.0542	1.92804	18.4963	0.445467
0.110209	83.7962	2.37936	19.3609	0.549744
0.120667	77.8583	1.92513	17.9889	0.444796
0.131154	83.0881	2.03475	19.1973	0.470122
0.140101	85.4837	1.8188	19.7508	0.420228
0.150808	83.7074	1.96866	19.3403	0.454852
0.159828	82.5759	2.09447	19.0789	0.483922
0.170536	85.9118	2.18275	19.8497	0.504317
0.182749	86.6924	1.71655	20.03	0.396604
0.193243	86.0475	1.82453	19.881	0.421553
0.202949	88.1084	1.98448	20.3572	0.458507