File: data/monolayers/nanoparticles/Ac_CoFe_C/vsm/rescale/AH11_10K_LangevinSAXSscaled.xye
#Executed at: 2018-11-15 15:45:37.5722
#Loaded File	 = ../rawdata/DD226_2_HYST_10K_REPEAT_3.DAT
#Rescale Factor	 = 4.32812
#[[Data]]
#B/T	M/kAm-1	sM/kAm-1	M_raw/memu	sM_raw/memu
-3.50147e-05	161.169	1.60967	37.2376	0.371909
0.046667	156.692	1.57727	36.2031	0.364423
0.0975781	151.493	1.47862	35.0021	0.34163
0.155402	146.034	1.23898	33.7408	0.286263
0.208521	139.487	1.3778	32.228	0.318336
0.258867	134.57	1.40922	31.092	0.325597
0.311467	131.001	1.20826	30.2675	0.279165
0.364022	124.175	1.51719	28.6903	0.350543
0.417909	118.134	1.54706	27.2944	0.357444
0.469071	112.877	1.38559	26.08	0.320137
0.519481	106.56	1.45894	24.6204	0.337083
0.570365	101.197	1.27133	23.3812	0.293737
0.623856	93.6	1.6121	21.626	0.37247
0.677798	85.6307	1.21246	19.7847	0.280136
0.731043	79.0208	1.49169	18.2575	0.344651
0.77623	72.8184	1.50418	16.8245	0.347536
0.833208	65.8169	1.67038	15.2068	0.385937
0.883687	58.3125	1.42228	13.4729	0.328614
0.936218	49.0592	1.61081	11.335	0.372174
0.987433	43.0182	1.55152	9.93924	0.358474
1.03991	34.8065	1.5742	8.04195	0.363714
1.09337	26.9464	1.42811	6.2259	0.329962
1.14533	20.7241	1.65025	4.78824	0.381286
1.19534	13.9553	1.84621	3.22432	0.426561
1.25228	4.41389	1.64931	1.01982	0.381067
1.30375	-3.97693	1.83808	-0.918859	0.424683
1.359	-11.2714	1.94111	-2.60423	0.448487
1.41873	-21.0496	1.87627	-4.86345	0.433507
1.47019	-25.9341	1.79645	-5.99199	0.415064
1.52964	-35.537	1.78445	-8.21071	0.412291
1.58213	-43.256	1.4626	-9.99416	0.337929
1.63909	-51.1859	2.57261	-11.8263	0.594395
1.68881	-59.2595	1.71699	-13.6917	0.396706
1.74701	-68.9188	2.0111	-15.9235	0.464658
1.80226	-74.7826	1.88204	-17.2783	0.434839
1.85874	-84.6676	2.09122	-19.5622	0.483169
1.9112	-92.2626	2.07643	-21.317	0.479752
1.96892	-99.8353	1.65186	-23.0667	0.381658
2.02088	-108.372	2.15903	-25.039	0.498837
2.07237	-115.43	1.91891	-26.6697	0.443358
2.12557	-123.103	1.82234	-28.4425	0.421047
2.17678	-132.071	1.75145	-30.5146	0.404668
2.23306	-139.878	1.92047	-32.3184	0.443719
2.29028	-148.155	2.21138	-34.2309	0.510933
2.34621	-154.192	2.54163	-35.6256	0.587235
2.39846	-163.228	2.84056	-37.7134	0.656303
2.45242	-169.908	2.16474	-39.2566	0.500157
2.50865	-180.366	2.17618	-41.673	0.5028
2.56211	-188.017	2.66404	-43.4407	0.615518
2.61407	-196.981	2.34388	-45.5118	0.541547
2.66255	-205.466	2.33084	-47.4723	0.538533
2.7171	-208.927	1.98581	-48.272	0.458815
2.76932	-217.48	2.5895	-50.248	0.598296
2.82379	-225.401	1.9333	-52.0782	0.446683
2.88099	-233.648	2.38369	-53.9836	0.550745
2.93395	-244.494	2.61088	-56.4897	0.603236
2.98995	-251.086	2.21676	-58.0128	0.512176
3.04465	-257.662	2.51596	-59.532	0.581305
3.09787	-265.03	2.60125	-61.2345	0.601011
3.15211	-276.504	2.36829	-63.8853	0.547185
3.2086	-285.217	2.30022	-65.8986	0.531458
3.2643	-294.072	2.34171	-67.9444	0.541044
3.31975	-298.946	2.93774	-69.0705	0.678756
3.3705	-306.039	2.53481	-70.7094	0.58566
3.42347	-314.552	2.48348	-72.6762	0.5738
3.47494	-320.555	2.6014	-74.0632	0.601046
3.53016	-333.707	2.44083	-77.1021	0.563946
3.57914	-339.382	3.06501	-78.4133	0.708162
3.62913	-344.299	2.6464	-79.5492	0.611443
3.6818	-353.683	2.66476	-81.7173	0.615685
3.7378	-361.662	2.35975	-83.5609	0.545214
3.79028	-369.077	2.97966	-85.2741	0.688442
3.84425	-374.52	2.64751	-86.5316	0.6117
3.8942	-386.697	2.47938	-89.3452	0.572853
3.94242	-394.078	2.68359	-91.0506	0.620036
4.0034	-404.033	3.15383	-93.3507	0.728682
4.0564	-411.003	2.24683	-94.9611	0.519124
4.11613	-418.781	2.79419	-96.758	0.645588
4.17333	-427.539	2.97947	-98.7816	0.688398
4.23154	-436.949	2.4823	-100.956	0.573527
4.28152	-445.62	3.35037	-102.959	0.774093
4.33125	-450.548	2.96639	-104.098	0.685375
4.38196	-458.821	2.76517	-106.009	0.638884
4.43043	-464.562	2.66703	-107.336	0.616209
4.47698	-475.897	2.54908	-109.955	0.588958
4.53046	-482.094	2.69836	-111.386	0.623447
4.58368	-488.275	3.13841	-112.814	0.725119
4.63888	-497.441	2.81061	-114.932	0.649383
4.69731	-504.874	2.6238	-116.65	0.606221
4.75232	-514.589	3.31862	-118.894	0.766757
4.80682	-523.443	3.49775	-120.94	0.808145
4.8675	-534.083	3.24899	-123.398	0.750669
4.91947	-540.336	3.40772	-124.843	0.787344
4.96924	-549.178	3.15074	-126.886	0.727969
5.02293	-556	2.87532	-128.462	0.664334
5.07766	-568.623	2.65158	-131.379	0.61264
5.13236	-575.036	2.95151	-132.86	0.681937
5.18911	-581.084	3.49522	-134.258	0.80756
5.24356	-593.206	3.266	-137.059	0.754599
5.29832	-599.5	2.60594	-138.513	0.602095
5.352	-606.863	3.70747	-140.214	0.8566
5.40723	-617.603	2.93415	-142.695	0.677926
5.46293	-623.595	3.1954	-144.08	0.738287
5.51369	-631.186	3.08482	-145.834	0.712738
5.57164	-644.063	3.49599	-148.809	0.807739
5.62512	-652.667	3.0656	-150.797	0.708299
5.67309	-660.944	2.91053	-152.709	0.67247
5.72881	-664.898	3.30106	-153.623	0.7627
5.78106	-676.869	3.69083	-156.388	0.852755
5.83629	-683.323	2.84302	-157.88	0.65687
5.88978	-688.716	3.38372	-159.126	0.781799
5.94322	-699.05	4.07319	-161.513	0.941099
5.99572	-705.604	3.37219	-163.028	0.779134
6.05091	-718.011	2.57359	-165.894	0.594621
6.10564	-723.634	2.75349	-167.194	0.636186
6.16035	-735.654	2.65045	-169.971	0.61238
6.22033	-745.089	2.85024	-172.151	0.65854
6.27238	-751.174	3.08352	-173.556	0.712438
6.32359	-760.444	2.76903	-175.698	0.639776
6.37631	-770.459	3.33312	-178.012	0.770107
6.43179	-777.886	3.91761	-179.728	0.905151
6.48349	-784.913	2.50659	-181.352	0.579139
6.53698	-789.281	3.4067	-182.361	0.787108
6.58795	-801.246	3.29634	-185.126	0.76161
6.63993	-807.48	4.14645	-186.566	0.958026
6.69292	-816.557	5.04103	-188.663	1.16472
6.74765	-827.257	3.16658	-191.135	0.73163
6.80211	-836.534	4.17396	-193.279	0.964382
6.85785	-844.134	2.79065	-195.035	0.644772
6.90957	-857.063	3.37746	-198.022	0.780353
6.96327	-859.788	2.89298	-198.651	0.668415
7.01475	-868.565	3.2626	-200.679	0.753814
7.06821	-876.272	3.40335	-202.46	0.786335
7.12345	-882.848	3.82149	-203.979	0.882945
7.17613	-893.292	3.3143	-206.392	0.76576
7.23342	-902.307	3.70261	-208.475	0.855477
7.28739	-913.185	3.76343	-210.989	0.86953
7.33737	-920.621	3.83195	-212.707	0.88536
7.38605	-928.659	3.78214	-214.564	0.873851
7.44255	-939.035	3.8607	-216.961	0.892004
7.49252	-947.171	3.47752	-218.841	0.803472
7.55274	-958.571	4.07964	-221.475	0.942589
7.60653	-964.602	3.42428	-222.868	0.79117
7.65626	-970.832	2.50996	-224.308	0.579918
7.70348	-981.221	3.33337	-226.708	0.770166
7.75721	-985.723	3.51615	-227.748	0.812395
7.80967	-989.847	2.7447	-228.701	0.634155
7.86815	-1003.13	3.39318	-231.77	0.783983
7.92635	-1009.77	3.39065	-233.304	0.783399
7.97985	-1023.12	2.66882	-236.39	0.616623
8.03589	-1029.9	3.69461	-237.954	0.853628
8.08289	-1038.81	3.94911	-240.013	0.91243
8.14231	-1050	3.68117	-242.599	0.850523
8.1953	-1056.18	5.02874	-244.028	1.16188
8.24804	-1065.48	4.49547	-246.175	1.03867
8.313025	-1074.4	2.52782	-248.238	0.584046
8.36173	-1082.19	3.02035	-250.036	0.697843
8.41296	-1088.24	3.18333	-251.435	0.735498
8.47195	-1100.02	2.92642	-254.156	0.676141
8.52669	-1109.87	3.00272	-256.433	0.69377
8.57866	-1119.34	3.6022	-258.619	0.832278
8.63264	-1128.75	4.1997	-260.795	0.970329
8.6846	-1134.58	3.93155	-262.141	0.908373
8.73558	-1141.11	3.33353	-263.649	0.770203
8.78358	-1147.59	3.64471	-265.146	0.842099
8.83679	-1160.22	3.17579	-268.065	0.733757
8.888	-1169.7	3.59637	-270.256	0.83093
8.93774	-1175.73	3.28704	-271.648	0.759461
8.99125	-1180.11	2.91678	-272.66	0.673914
8.96868	-1183.61	3.39146	-273.471	0.783586
8.91598	-1174.31	3.36722	-271.322	0.777986
8.86701	-1165.19	3.59196	-269.213	0.829911
8.81728	-1154.01	3.75077	-266.631	0.866604
8.77134	-1148.41	3.49619	-265.337	0.807785
8.71536	-1137.63	4.16117	-262.845	0.961427
8.66137	-1132.41	2.87679	-261.64	0.664673
8.60938	-1127.44	2.77676	-260.491	0.641563
8.56221	-1114.21	3.57529	-257.435	0.826061
8.50446	-1107.39	3.39191	-255.859	0.78369
8.46266	-1097.61	3.58293	-253.6	0.827824
8.40821	-1090.41	4.26238	-251.935	0.984811
8.34927	-1079.7	3.7544	-249.463	0.867443
8.30024	-1074.41	4.56061	-248.24	1.05372
8.24273	-1061.57	3.71836	-245.273	0.859116
8.18851	-1055.79	3.20839	-243.937	0.741289
8.13557	-1045.83	3.43252	-241.636	0.793073
8.07982	-1042.18	3.50832	-240.794	0.810586
8.01954	-1031.39	3.92674	-238.3	0.907261
7.96151	-1019.15	3.2426	-235.472	0.749192
7.9001	-1008.49	2.65471	-233.009	0.613363
7.85258	-1002.47	3.17525	-231.618	0.733633
7.79063	-987.629	3.65594	-228.189	0.844694
7.73862	-982.521	3.5833	-227.009	0.827911
7.68068	-970.904	3.81227	-224.324	0.880813
7.62543	-963.352	4.21446	-222.58	0.973737
7.56819	-955.988	4.19975	-220.878	0.970339
7.50945	-946.3	3.35153	-218.64	0.774361
7.45547	-937.856	3.50106	-216.689	0.80891
7.39774	-929.3	3.36521	-214.712	0.777522
7.33948	-919.386	2.97134	-212.421	0.68652
7.28083	-914.708	3.13432	-211.341	0.724175
7.22808	-906.323	3.04132	-209.403	0.702689
7.16884	-896.869	3.46805	-207.219	0.801283
7.11288	-885.8	2.67884	-204.661	0.618939
7.05714	-880.308	2.3608	-203.393	0.545455
7.00662	-867.035	3.07032	-200.326	0.709387
6.94541	-858.861	3.90868	-198.437	0.903089
6.88797	-847.695	2.91959	-195.857	0.674562
6.82923	-838.041	3.2973	-193.627	0.761832
6.77599	-830.004	4.31717	-191.77	0.997468
6.72103	-822.705	2.82498	-190.084	0.652703
6.6625	-814.444	3.50263	-188.175	0.809273
6.60856	-804.473	3.71996	-185.871	0.859485
6.55238	-796.816	2.68709	-184.102	0.620844
6.49559	-783.251	3.58744	-180.968	0.828867
6.43442	-774.55	3.90168	-178.957	0.901471
6.3829	-768.933	3.23597	-177.66	0.747662
6.32821	-758.488	2.68024	-175.246	0.619261
6.27199	-750.667	3.89853	-173.439	0.900743
6.21294	-742.448	2.3993	-171.541	0.554351
6.16297	-733.205	3.13261	-169.405	0.723781
6.10925	-725.435	3.86457	-167.61	0.892897
6.05452	-718.057	3.04519	-165.905	0.703583
5.99755	-708.801	4.07862	-163.766	0.942353
5.93533	-697.443	3.03976	-161.142	0.702327
5.87534	-689.858	3.24756	-159.39	0.750338
5.81964	-681.39	3.7005	-157.433	0.854989
5.76313	-671.121	2.95248	-155.061	0.682162
5.70639	-663.02	3.12814	-153.189	0.722748
5.6482	-656.074	3.28862	-151.584	0.759826
5.59398	-647.67	3.50552	-149.642	0.80994
5.54328	-634.226	3.22827	-146.536	0.745882
5.48979	-627.854	2.72485	-145.064	0.629568
5.4358	-617.758	3.21381	-142.731	0.742542
5.3766	-610.725	3.22773	-141.106	0.745757
5.32011	-601.379	3.03899	-138.947	0.702149
5.26462	-594.272	2.74855	-137.305	0.635044
5.20891	-582.509	2.85788	-134.587	0.660306
5.15593	-576.284	3.00989	-133.149	0.695427
5.10172	-568.446	3.22129	-131.338	0.74427
5.04627	-559.932	2.68454	-129.371	0.620256
4.98903	-548.433	2.42156	-126.714	0.559494
4.93607	-542.035	3.54181	-125.236	0.818326
4.88007	-532.793	2.63978	-123.1	0.609913
4.82384	-522.568	2.83487	-120.738	0.654989
4.7629	-518.687	2.69529	-119.841	0.622739
4.71015	-504.654	3.03117	-116.599	0.700342
4.65446	-498.193	2.68692	-115.106	0.620804
4.59672	-491.12	2.9082	-113.472	0.671931
4.53726	-483.055	2.79252	-111.608	0.645204
4.48403	-473.316	3.27141	-109.358	0.75585
4.42753	-467.527	2.71237	-108.021	0.626685
4.3733	-457.134	2.48688	-105.62	0.574586
4.3123	-449.501	2.29854	-103.856	0.531071
4.2546	-439.067	3.13719	-101.445	0.724839
4.19415	-429.396	3.19345	-99.2108	0.737838
4.13769	-420.106	2.8743	-97.0643	0.664098
4.07876	-414.159	2.53259	-95.6903	0.585147
4.02375	-405.325	2.62227	-93.6491	0.605867
3.97374	-398.509	2.52881	-92.0743	0.584274
3.92251	-387.827	2.34776	-89.6062	0.542443
3.87055	-378.191	2.1501	-87.3799	0.496775
3.81434	-372.071	2.5998	-85.9659	0.600676
3.75863	-361.305	2.66596	-83.4785	0.615961
3.70167	-355.574	2.16972	-82.1542	0.501307
3.64918	-349.321	3.03776	-80.7096	0.701865
3.59147	-338.119	2.82155	-78.1214	0.651911
3.53573	-330.685	2.46864	-76.4039	0.570372
3.48453	-322.098	2.91996	-74.4197	0.674648
3.42406	-312.746	3.14258	-72.2591	0.726084
3.36987	-302.128	2.32041	-69.8057	0.536123
3.31389	-296.44	2.16943	-68.4916	0.501239
3.25815	-286.218	2.22825	-66.1299	0.514831
3.20545	-278.887	2.35043	-64.436	0.543061
3.15272	-271.64	3.31218	-62.7617	0.76527
3.10075	-263.419	2.8168	-60.8622	0.650812
3.044	-255.794	2.36767	-59.1005	0.547044
2.99205	-246.32	2.3069	-56.9114	0.533001
2.93733	-235.677	2.66708	-54.4525	0.616221
2.88186	-232.1	2.31266	-53.6259	0.534334
2.82517	-220.164	2.02108	-50.8682	0.466964
2.76968	-211.106	2.33214	-48.7754	0.538835
2.71471	-204.876	2.03624	-47.3359	0.470468
2.65419	-197.632	2.45374	-45.6623	0.56693
2.60022	-186.999	2.44802	-43.2056	0.565609
2.54749	-180.993	2.0241	-41.8179	0.467663
2.49802	-172.229	2.38885	-39.793	0.551936
2.43931	-162.298	2.11134	-37.4984	0.487818
2.38158	-156.522	1.66822	-36.164	0.385438
2.32441	-143.502	1.9376	-33.1558	0.447677
2.27018	-137.8	2.17839	-31.8383	0.50331
2.21645	-130.203	1.8514	-30.083	0.42776
2.16418	-122.84	1.9282	-28.3818	0.445506
2.11124	-115.125	1.80965	-26.5992	0.418115
2.06077	-107.738	2.12829	-24.8926	0.491734
2.00977	-100.066	2.14394	-23.1199	0.495352
1.95457	-93.3602	2.13039	-21.5706	0.49222
1.9046	-84.4259	2.31638	-19.5063	0.535193
1.84641	-71.4601	2.13366	-16.5106	0.492977
1.79344	-63.3799	1.87918	-14.6437	0.434178
1.73694	-54.2132	2.13427	-12.5258	0.493116
1.68022	-47.7471	2.04899	-11.0318	0.473414
1.62227	-39.6651	2.0044	-9.16451	0.46311
1.56778	-32.6426	1.86549	-7.54197	0.431016
1.51535	-23.1053	2.0781	-5.33842	0.48014
1.46387	-15.5651	1.75937	-3.59627	0.406497
1.40565	-9.07989	1.37094	-2.09788	0.316752
1.3522	-0.863308	1.43927	-0.199465	0.332538
1.30294	5.9736	1.45302	1.38018	0.335717
1.24447	14.5081	1.88657	3.35206	0.435887
1.19425	21.113	1.85148	4.87811	0.42778
1.13979	30.4443	2.11824	7.03406	0.489413
1.08832	35.7866	1.95142	8.26839	0.450869
1.03485	43.854	1.36675	10.1323	0.315783
0.983387	50.9708	1.53298	11.7766	0.354191
0.926154	59.8832	1.60725	13.8358	0.37135
0.870389	64.4391	1.52738	14.8885	0.352897
0.819394	71.1861	1.56999	16.4473	0.362742
0.767219	78.8537	1.41356	18.2189	0.326599
0.712717	85.9795	1.5088	19.8653	0.348604
0.662733	91.7961	1.73303	21.2092	0.400412
0.609523	98.5544	1.45858	22.7707	0.337001
0.556814	105.142	1.32426	24.2928	0.305967
0.505863	111.278	1.66099	25.7103	0.383768
0.452852	116.816	1.61553	26.9899	0.373263
0.400335	123.134	1.58981	28.4496	0.36732
0.35084	127.925	1.64687	29.5567	0.380505
0.296886	133.45	1.41514	30.8332	0.326964
0.244369	140.104	1.24124	32.3706	0.286786
0.190425	143.684	1.42505	33.1977	0.329254
0.136927	149.895	1.46201	34.6329	0.337793
0.0841978	153.897	1.49501	35.5575	0.345417
0.0322032	159.011	1.45303	36.7391	0.335718
-0.0247731	163.274	1.28011	37.724	0.295766
-0.0796408	168.337	1.35254	38.8938	0.3125
-0.130228	171.323	1.08197	39.5836	0.249986
-0.179846	175.544	1.4351	40.559	0.331575
-0.233196	180.81	1.57116	41.7757	0.363011
-0.287377	185.502	1.56879	42.8597	0.362465
-0.343098	190.649	1.65477	44.0489	0.38233
-0.394122	195.321	1.64999	45.1283	0.381225
-0.444626	200.381	1.19805	46.2974	0.276807
-0.492944	205.957	1.3389	47.5858	0.309348
-0.545186	209.727	1.65816	48.4569	0.383113
-0.599113	215.764	1.52461	49.8517	0.352257
-0.658134	222.006	1.65898	51.2937	0.383302
-0.713622	227.949	1.4776	52.6669	0.341395
-0.768332	235.006	1.92634	54.2975	0.445075
-0.820303	241.402	1.46974	55.7752	0.339578
-0.872495	245.906	1.45298	56.8159	0.335706
-0.929076	252.61	1.63345	58.3648	0.377403
-0.984788	257.86	1.36409	59.5778	0.315168
-1.04025	264.36	1.53977	61.0795	0.35576
-1.09347	269.844	1.94986	62.3467	0.450509
-1.14968	276.048	1.62381	63.78	0.375175
-1.20268	280.858	1.62213	64.8915	0.374788
-1.2641	286.779	1.67576	66.2594	0.387179
-1.31837	292.423	1.59808	67.5636	0.369231
-1.37885	297.09	1.62127	68.6418	0.37459
-1.43333	299.959	1.60814	69.3047	0.371557
-1.48455	304.359	1.56322	70.3213	0.361178
-1.54199	308.785	1.70577	71.3439	0.394113
-1.59823	312.09	1.67224	72.1074	0.386367
-1.64995	315.376	1.92529	72.8666	0.444833
-1.70063	316.372	1.50231	73.0968	0.347105
-1.75314	318.515	1.84688	73.5919	0.426717
-1.80461	319.093	1.5287	73.7256	0.353202
-1.85385	321.957	2.04518	74.3872	0.472533
-1.9113	321.152	1.90924	74.2013	0.441124
-1.96352	321.962	1.88937	74.3885	0.436534
-2.01672	323.892	2.1022	74.8343	0.485707
-2.0732	321.115	1.83371	74.1926	0.423673
-2.12967	322.725	1.56691	74.5646	0.362029
-2.18263	321.894	2.12643	74.3728	0.491306
-2.23939	319.537	2.03747	73.828	0.470752
-2.29362	319.249	1.5479	73.7616	0.357638
-2.34579	318.114	2.05114	73.4994	0.47391
-2.39603	318.979	2.18782	73.6991	0.505489
-2.45225	318.433	2.19751	73.5731	0.507729
-2.50567	317.339	1.90979	73.3203	0.441251
-2.55794	316.471	1.82067	73.1197	0.420661
-2.60867	314.112	2.32603	72.5747	0.537422
-2.65986	313.952	1.89815	72.5376	0.438562
-2.71466	319.607	2.24791	73.8442	0.519372
-2.76659	318.858	1.73285	73.6712	0.40037
-2.82306	320.517	1.97156	74.0545	0.455524
-2.8778	320.721	2.21146	74.1017	0.510951
-2.92599	323.81	2.81851	74.8154	0.651209
-2.98021	324.659	1.9044	75.0115	0.440005
-3.03265	325.876	2.38266	75.2926	0.550506
-3.08163	329.299	1.83586	76.0836	0.424169
-3.13512	333.902	2.15092	77.1471	0.496963
-3.18962	336.979	2.30067	77.8579	0.531564
-3.2428	338.905	2.47806	78.303	0.572549
-3.29951	342.965	1.97413	79.2411	0.456117
-3.35351	349.592	2.1869	80.7723	0.505276
-3.40597	352.724	2.70035	81.4957	0.623908
-3.45741	357.24	2.24963	82.5393	0.51977
-3.51038	363.646	2.42152	84.0193	0.559485
-3.56111	366.879	2.2675	84.7664	0.523899
-3.61306	372.457	2.04487	86.055	0.47246
-3.67079	378.862	2.19543	87.535	0.507248
-3.72255	384.452	2.48202	88.8265	0.573462
-3.77448	391.189	2.70034	90.3831	0.623906
-3.83068	399.539	2.66871	92.3122	0.616598
-3.88666	404.036	2.78162	93.3513	0.642685
-3.93916	414.474	2.31724	95.7629	0.535391
-3.99788	419.482	3.24639	96.9201	0.750069
-4.05506	423.717	2.78325	97.8986	0.643061
-4.11108	431.889	2.70867	99.7868	0.62583
-4.16605	438.478	2.70157	101.309	0.62419
-4.22372	449.984	2.09174	103.967	0.48329
-4.2822	456.589	2.13519	105.494	0.493329
-4.33769	465.311	2.92724	107.509	0.676329
-4.39015	471.902	2.65141	109.032	0.6126
-4.44835	479.968	2.47446	110.895	0.571716
-4.50564	486.313	2.60114	112.361	0.600986
-4.55666	494.271	2.59942	114.2	0.600587
-4.60728	500.184	2.92099	115.566	0.674886
-4.66654	510.07	2.78662	117.85	0.643839
-4.72101	514.359	2.51107	118.841	0.580175
-4.77597	523.893	3.26671	121.044	0.754763
-4.83244	534.822	3.04492	123.569	0.70352
-4.88916	542.889	3.08038	125.433	0.711713
-4.94265	548.745	2.83307	126.786	0.654572
-4.99688	558.14	4.18257	128.957	0.96637
-5.05359	568.505	2.48038	131.351	0.573085
-5.1073	574.087	4.51569	132.641	1.04334
-5.16324	586.183	2.74543	135.436	0.634324
-5.21647	591.616	3.41877	136.691	0.789897
-5.27692	601.76	2.87312	139.035	0.663825
-5.3294	607.312	2.89448	140.318	0.668761
-5.38188	609.749	3.31209	140.881	0.765249
-5.43759	624.539	2.40359	144.298	0.555342
-5.49307	631.735	3.48915	145.961	0.806158
-5.55001	640.965	2.74658	148.093	0.634588
-5.60825	645.385	3.30434	149.114	0.763457
-5.66248	661.001	2.85315	152.722	0.659211
-5.71765	666.548	3.38938	154.004	0.783106
-5.77337	674.887	3.27222	155.931	0.756036
-5.82837	683.677	3.90853	157.961	0.903055
-5.8856	691.739	2.52452	159.824	0.583283
-5.9373	700.347	2.47198	161.813	0.571144
-5.98825	709.708	2.31055	163.976	0.533846
-6.04822	718.476	2.42239	166.002	0.559685
-6.10843	727.34	3.3632	168.05	0.777056
-6.16364	733.218	2.04742	169.408	0.473051
-6.21912	744.098	3.17668	171.922	0.733962
-6.27442	753.773	3.2086	174.157	0.741338
-6.3269	760.253	3.29373	175.654	0.761005
-6.38058	766.43	3.23115	177.081	0.746546
-6.43929	776.808	2.77429	179.479	0.640991
-6.49223	784.777	3.7508	181.32	0.866611
-6.54497	792.669	2.6309	183.144	0.607862
-6.60092	803.849	3.22944	185.727	0.746153
-6.65615	811.857	3.75015	187.577	0.866462
-6.71415	820.541	4.23828	189.584	0.979241
-6.76637	827.924	3.91229	191.289	0.903924
-6.82032	837.893	2.81949	193.593	0.651435
-6.87576	846.207	3.51413	195.514	0.811929
-6.93349	861.042	2.17397	198.941	0.502289
-6.99094	866.406	4.0278	200.18	0.930612
-7.04589	875.05	2.38448	202.178	0.550927
-7.09887	883.25	3.47982	204.072	0.804003
-7.14409	893.226	3.60563	206.377	0.83307
-7.19908	902.369	2.9901	208.49	0.690854
-7.25703	912.344	2.87615	210.794	0.664525
-7.31849	922.643	2.93452	213.174	0.678011
-7.3777	926.913	3.60947	214.161	0.833957
-7.43418	937.125	2.70654	216.52	0.625337
-7.48638	944.193	2.5613	218.153	0.591781
-7.54009	950.316	3.31718	219.568	0.766424
-7.59858	961.732	3.01517	222.205	0.696645
-7.66106	973.344	3.62742	224.888	0.838103
-7.718	982.01	2.92245	226.89	0.675224
-7.76648	986.847	3.02326	228.008	0.698515
-7.82417	997.541	3.68778	230.479	0.852052
-7.88091	1008	2.98102	232.896	0.688756
-7.93061	1013.91	3.41006	234.26	0.787883
-7.98256	1025.33	2.93541	236.901	0.678217
-8.04088	1033.65	3.4174	238.822	0.78958
-8.09558	1045.4	2.62026	241.537	0.605402
-8.14802	1048.48	3.12681	242.248	0.722439
-8.20674	1059.67	3.14177	244.833	0.725896
-8.26168	1069.86	3.14221	247.187	0.725997
-8.31392	1072.11	4.01738	247.708	0.928204
-8.36635	1086.76	3.68889	251.094	0.852307
-8.42058	1092.1	3.33909	252.326	0.771487
-8.4698	1102.33	3.30882	254.69	0.764493
-8.5188	1109.9	3.16403	256.439	0.731039
-8.57075	1116.92	3.48197	258.061	0.804499
-8.62298	1125.06	3.24595	259.942	0.749966
-8.67294	1135.73	4.58111	262.408	1.05845
-8.72965	1142.48	4.15141	263.967	0.959172
-8.7821	1150.4	2.85067	265.797	0.658639
-8.82982	1157.65	2.94231	267.472	0.679811
-8.88078	1166.94	3.1463	269.618	0.726943
-8.931	1172.91	3.9585	270.997	0.9146
-8.98371	1181.26	3.77309	272.927	0.871761
-8.96816	1181.08	3.07804	272.885	0.711172
-8.91718	1174.86	4.58464	271.447	1.05927
-8.86576	1165.4	3.51269	269.263	0.811596
-8.81306	1162.41	3.42483	268.572	0.791296
-8.75789	1148.17	2.92721	265.28	0.676322
-8.70687	1140.26	2.97855	263.454	0.688184
-8.66342	1130.23	3.36839	261.137	0.778256
-8.60498	1122.66	3.21743	259.386	0.743378
-8.55426	1116.62	3.95271	257.992	0.913262
-8.50286	1111.16	4.33182	256.73	1.00085
-8.45206	1099.62	3.32545	254.065	0.768335
-8.39511	1092.15	2.86255	252.338	0.661384
-8.34214	1085.28	3.66669	250.751	0.847178
-8.28889	1071.19	2.68573	247.494	0.620529
-8.23645	1065.71	2.88051	246.229	0.665534
-8.18023	1052.07	3.93986	243.078	0.910293
-8.12103	1047.58	2.8821	242.04	0.6659
-8.06706	1037.51	3.70654	239.713	0.856384
-8.01004	1028.79	3.23498	237.699	0.747432
-7.94733	1017.62	3.96862	235.118	0.916939
-7.89213	1009.84	3.01509	233.321	0.696629
-7.82967	999.234	3.32833	230.87	0.769
-7.77694	997.208	3.32733	230.402	0.76877
-7.72149	986.947	3.78481	228.031	0.874469
-7.66652	973.69	2.47309	224.968	0.571401
-7.60933	963.074	3.65059	222.515	0.843458
-7.5563	954.083	3.30155	220.438	0.762813
-7.49759	943.707	3.47661	218.041	0.803261
-7.44087	935.617	3.31197	216.172	0.765221
-7.38264	928.736	3.50633	214.582	0.810127
-7.3247	919.793	3.26257	212.516	0.753808
-7.26849	912.949	3.03753	210.934	0.701811
-7.21205	901.976	3.57354	208.399	0.825656
-7.15604	894.691	4.20364	206.716	0.97124
-7.09858	882.657	3.23537	203.935	0.747523
-7.04286	878.52	2.8766	202.979	0.664629
-6.9844	866.998	3.42984	200.317	0.792454
-6.92995	860.185	3.17225	198.743	0.73294
-6.87374	851.549	2.74973	196.748	0.635317
-6.82225	842.189	4.19546	194.585	0.969349
-6.76081	834.437	3.22123	192.794	0.744255
-6.70459	826.294	3.13794	190.913	0.725012
-6.6501	814.754	3.05933	188.247	0.706849
-6.59212	803.428	3.08277	185.63	0.712265
-6.53743	793.29	3.62255	183.287	0.83698
-6.48021	785.941	4.22306	181.589	0.975725
-6.42751	778.985	2.82844	179.982	0.653503
-6.3723	771.962	3.37957	178.36	0.780839
-6.31659	762.523	3.42023	176.179	0.790235
-6.25586	753.986	3.73323	174.206	0.862551
-6.20236	742.35	2.78651	171.518	0.643814
-6.14239	733.479	2.86602	169.468	0.662185
-6.09016	726.538	3.45544	167.864	0.79837
-6.03467	719.447	2.93816	166.226	0.678852
-5.98197	709.746	4.0531	163.985	0.936457
-5.92	695.467	3.23769	160.686	0.748059
-5.86306	688.669	3.60176	159.115	0.832177
-5.80759	677.401	3.63216	156.511	0.839199
-5.75108	671.876	2.68624	155.235	0.620647
-5.69612	660.741	2.77587	152.662	0.641356
-5.64015	652.469	3.36338	150.751	0.7771
-5.58421	642.52	2.72685	148.452	0.630031
-5.52848	636.758	3.62064	147.121	0.836538
-5.4695	627.509	2.58042	144.984	0.596199
-5.41432	611.407	3.48904	141.264	0.806133
-5.35808	610.39	3.01459	141.029	0.696512
-5.30011	598.955	3.22772	138.387	0.745754
-5.24115	596.084	2.48294	137.723	0.573675
-5.1812	582.293	2.17145	134.537	0.501706
-5.13048	575.548	2.68294	132.979	0.619886
-5.07603	565.7	3.14267	130.703	0.726104
-5.02229	557.079	3.19058	128.712	0.737175
-4.96186	545.735	3.68825	126.09	0.852158
-4.91312	543.794	2.32381	125.642	0.53691
-4.85588	530.86	3.44278	122.654	0.795443
-4.79917	521.797	2.97323	120.56	0.686957
-4.74397	517.3	2.93694	119.521	0.678571
-4.68374	506.748	2.6568	117.083	0.613845
-4.62777	497.081	3.44094	114.849	0.795019
-4.57605	489.052	2.5831	112.994	0.596818
-4.52062	480.337	2.32897	110.98	0.538101
-4.46513	469.604	3.12843	108.501	0.722815
-4.4071	462.561	2.37608	106.873	0.548987
-4.35416	453.791	2.85778	104.847	0.660283
-4.30091	449.067	3.74569	103.755	0.86543
-4.24119	436.924	2.75617	100.95	0.636805
-4.18676	429.116	2.82455	99.146	0.652603
-4.13428	421.102	3.25148	97.2945	0.751245
-4.07908	410.586	3.06871	94.8646	0.709017
-4.02411	403.55	2.66155	93.239	0.614943
-3.9721	396.07	2.79749	91.5108	0.646352
-3.91863	389.282	2.16793	89.9423	0.500893
-3.86193	378.472	2.52561	87.4449	0.583535
-3.80946	373.006	2.60388	86.1818	0.601619
-3.75447	363.727	3.11136	84.038	0.718871
-3.70076	353.637	2.77142	81.7067	0.640329
-3.64281	347.538	2.07872	80.2975	0.480282
-3.58634	337.516	2.18145	77.9821	0.504019
-3.53336	327.891	2.11036	75.7583	0.487592
-3.47865	318.327	3.01068	73.5486	0.69561
-3.42469	312.304	2.52655	72.1569	0.583753
-3.37423	307.013	2.59226	70.9344	0.598935
-3.31879	296.863	2.04043	68.5894	0.471435
-3.26254	288.484	2.66856	66.6534	0.616563
-3.2056	282.248	3.03189	65.2125	0.700509
-3.15341	271.357	2.21027	62.6961	0.510677
-3.09334	261.834	2.62743	60.4961	0.60706
-3.03791	254.068	2.56904	58.7017	0.593569
-2.98473	246.575	2.25629	56.9704	0.521309
-2.92896	237.707	2.42831	54.9214	0.561054
-2.87406	231.499	2.42972	53.4871	0.561379
-2.81982	222.061	2.20181	51.3065	0.508722
-2.76786	215.214	2.32586	49.7246	0.537382
-2.71464	207.604	2.57876	47.9662	0.595814
-2.66285	197.041	1.6228	45.5258	0.374943
-2.60365	188.715	1.97796	43.602	0.457001
-2.5507	181.364	1.86069	41.9037	0.429907
-2.49875	173.769	1.92407	40.1489	0.44455
-2.44801	165.069	2.13026	38.1388	0.49219
-2.39228	156.238	2.27073	36.0982	0.524644
-2.33461	147.917	1.7506	34.1758	0.404471
-2.27911	139.688	1.75962	32.2745	0.406554
-2.22636	133.372	1.88271	30.8153	0.434994
-2.16838	124.354	2.44999	28.7316	0.566063
-2.11545	114.61	1.51118	26.4804	0.349153
-2.06473	109.408	2.15938	25.2784	0.498919
-2.00553	99.3015	2.36427	22.9433	0.546258
-1.95202	92.8781	1.74735	21.4592	0.403721
-1.89881	83.7177	1.83042	19.3427	0.422912
-1.84487	74.9879	2.22058	17.3257	0.513058
-1.79162	68.4325	1.91425	15.8111	0.442282
-1.73865	61.0294	1.73078	14.1007	0.399891
-1.68694	52.1729	1.7688	12.0544	0.408676
-1.63046	46.1195	1.77378	10.6558	0.409827
-1.578	39.1402	1.73727	9.04323	0.401391
-1.53055	31.1093	1.87813	7.18771	0.433937
-1.47007	22.7831	1.80976	5.26397	0.418139
-1.41661	13.281	1.53701	3.06853	0.355122
-1.36265	5.84435	1.70778	1.35032	0.394577
-1.31063	-0.943101	1.67982	-0.217901	0.388118
-1.25566	-8.96732	1.5854	-2.07187	0.366301
-1.20046	-15.6113	1.92162	-3.60695	0.443984
-1.13847	-25.9081	1.88946	-5.98598	0.436554
-1.08525	-34.2093	1.71434	-7.90395	0.396093
-1.03478	-40.5748	1.64977	-9.37469	0.381175
-0.98532	-48.2073	1.6428	-11.1381	0.379565
-0.931084	-54.2081	1.41548	-12.5246	0.327041
-0.879555	-63.3483	1.57547	-14.6364	0.364007
-0.826337	-68.6308	1.70263	-15.8569	0.393387
-0.770111	-76.7618	1.8174	-17.7356	0.419905
-0.720384	-82.7899	1.5592	-19.1284	0.360249
-0.670415	-91.4849	1.51057	-21.1373	0.349012
-0.620651	-96.3634	1.40234	-22.2645	0.324006
-0.568952	-102.499	1.85424	-23.6821	0.428418
-0.517228	-107.186	1.36984	-24.7651	0.316498
-0.463248	-115.429	1.66178	-26.6695	0.38395
-0.410014	-121.601	1.60769	-28.0955	0.371453
-0.357245	-125.603	1.58507	-29.0201	0.366227
-0.301284	-133.184	1.39759	-30.7717	0.322909
-0.247287	-136.703	1.34118	-31.5848	0.309875
-0.194795	-142.656	1.61231	-32.9601	0.37252
-0.145529	-146.711	1.45712	-33.8973	0.336663
-0.0912934	-150.451	1.33923	-34.7611	0.309425
-0.0408012	-156.246	1.3363	-36.1002	0.308748
0.009903	-160.48	1.71469	-37.0785	0.396175
0.0650801	-163.308	1.60097	-37.7317	0.369899
0.119424	-170.023	1.31396	-39.2833	0.303587
0.16778	-172.611	1.5909	-39.8812	0.367573
0.21912	-176.171	1.36254	-40.7039	0.31481
0.270268	-181.006	1.38972	-41.8208	0.32109
0.322703	-185.098	1.63542	-42.7664	0.377859
0.373262	-191.365	1.16689	-44.2144	0.269606
0.429785	-195.511	1.50358	-45.1722	0.347398
0.480828	-200.68	1.51237	-46.3666	0.349429
0.530802	-206.015	1.41684	-47.5992	0.327358
0.583529	-211.661	1.52752	-48.9037	0.352928
0.638035	-216.951	1.35667	-50.126	0.313455
0.689722	-222.996	1.42017	-51.5225	0.328127
0.746966	-230.834	1.6653	-53.3334	0.384763
0.798166	-235.189	1.65318	-54.3398	0.381963
0.848653	-241.059	1.77052	-55.6959	0.409073
0.900447	-247.008	1.78614	-57.0704	0.412683
0.960932	-252.541	1.51126	-58.3488	0.349171
1.01613	-259.99	1.6763	-60.0698	0.387304
1.06862	-267.95	1.38693	-61.9091	0.320446
1.12284	-269.884	1.53709	-62.356	0.355141
1.17356	-276.307	1.77951	-63.8399	0.411151
1.22802	-282.618	1.87293	-65.298	0.432736
1.27977	-286.407	1.90051	-66.1734	0.439108
1.33823	-290.724	1.55844	-67.1709	0.360072
1.38824	-295.612	2.10126	-68.3004	0.485489
1.4382	-298.616	1.64999	-68.9944	0.381225
1.49316	-301.779	1.71978	-69.7252	0.397349
1.54715	-306.284	2.07263	-70.766	0.478875
1.60412	-309.118	1.47403	-71.4208	0.34057
1.66307	-310.551	1.97938	-71.752	0.45733
1.7158	-313.861	2.2877	-72.5166	0.528567
1.76576	-314.011	1.85369	-72.5514	0.428288
1.81623	-316.862	2.06179	-73.21	0.476371
1.87347	-317.509	1.54107	-73.3594	0.35606
1.92618	-319.947	2.11801	-73.9227	0.48936
1.98191	-320.296	2.08599	-74.0033	0.481961
2.03411	-318.342	2.15271	-73.5521	0.497376
2.08733	-319.092	2.05043	-73.7252	0.473747
2.14428	-318.523	2.37791	-73.5937	0.54941
2.20102	-319.161	1.71475	-73.7413	0.396188
2.25501	-317.399	2.26075	-73.334	0.52234
2.30475	-316.888	2.00209	-73.2159	0.462577
2.35747	-316.735	2.26627	-73.1807	0.523614
2.41318	-316.013	2.48472	-73.0139	0.574088
2.4649	-314.369	2.1979	-72.6339	0.507819
2.52091	-315.808	2.04129	-72.9665	0.471633
2.58006	-314.101	2.50125	-72.5722	0.577906
2.6363	-316.27	2.28349	-73.0733	0.527593
2.68911	-315.558	2.14614	-72.9088	0.49586
2.74584	-317.03	2.6198	-73.2488	0.605297
2.80403	-317.278	2.31485	-73.3061	0.53484
2.85827	-319.973	2.12486	-73.9289	0.490943
2.90819	-318.392	2.23595	-73.5635	0.516609
2.96294	-321.945	2.15424	-74.3845	0.497731
3.01815	-324.412	2.27483	-74.9545	0.525593
3.06961	-326.635	2.73982	-75.468	0.633027
3.12685	-329.78	2.82517	-76.1947	0.652747
3.18212	-333.837	2.68154	-77.1321	0.619562
3.24278	-337.847	2.69084	-78.0586	0.62171
3.29279	-344.787	2.43957	-79.6621	0.563655
3.34651	-346.668	3.19163	-80.0967	0.737417
3.40275	-351.107	2.63307	-81.1222	0.608363
3.45543	-357.627	2.45995	-82.6288	0.568365
3.50865	-361.006	2.62428	-83.4093	0.606332
3.56564	-369.915	2.97479	-85.4678	0.687316
3.61913	-369.664	3.24819	-85.4098	0.750485
3.67008	-378.929	2.57792	-87.5505	0.595621
3.72254	-383.928	2.9241	-88.7055	0.675605
3.776	-389.602	2.57702	-90.0164	0.595413
3.83173	-398.98	2.58958	-92.1831	0.598314
3.88298	-403.85	2.45275	-93.3084	0.566702
3.94062	-408.866	2.71574	-94.4674	0.627465
3.99865	-417.516	2.76023	-96.4657	0.637744
4.05847	-427.038	2.95444	-98.6659	0.682614
4.10963	-433.571	2.73447	-100.175	0.631792
4.16638	-440.381	2.74747	-101.749	0.634794
4.22206	-448.991	2.93487	-103.738	0.678093
4.27227	-452.167	3.40351	-104.472	0.786371
4.32502	-462.045	2.40829	-106.754	0.556427
4.37697	-466.313	2.79389	-107.74	0.645519
4.4317	-473.572	2.59479	-109.417	0.599518
4.48647	-479.497	3.18832	-110.786	0.736653
4.54145	-488.922	3.03142	-112.964	0.700402
4.59613	-496.501	2.98496	-114.715	0.689666
4.6509	-505.147	2.41933	-116.713	0.558979
4.70759	-515.362	3.49825	-119.073	0.808261
4.76431	-522.822	2.95441	-120.796	0.682608
4.82124	-529.653	3.03457	-122.375	0.701127
4.87475	-537.248	2.5048	-124.129	0.578727
4.93178	-547.973	2.97175	-126.608	0.686615
4.98947	-552.488	3.75788	-127.651	0.868247
5.04367	-562.054	3.3594	-129.861	0.77618
5.09739	-572.641	2.78905	-132.307	0.644402
5.15736	-580.154	3.74877	-134.043	0.866143
5.2126	-589.442	3.95269	-136.189	0.913257
5.26856	-599.57	4.7148	-138.529	1.08934
5.32855	-611.082	3.30673	-141.189	0.76401
5.37975	-616.63	3.05583	-142.471	0.706041
5.44023	-625.338	2.88175	-144.482	0.66582
5.4947	-635.453	3.6599	-146.82	0.84561
5.55218	-643.878	3.68675	-148.766	0.851813
5.60938	-646.843	3.6074	-149.451	0.833478
5.65912	-654.312	3.62526	-151.177	0.837604
5.71133	-662.223	3.43513	-153.005	0.793677
5.77079	-674.734	3.25673	-155.895	0.752458
5.82357	-680.728	2.82189	-157.28	0.651988
5.88105	-690.193	3.71748	-159.467	0.858913
5.93625	-706.51	3.31239	-163.237	0.765318
5.99273	-711.477	3.3957	-164.385	0.784566
6.05194	-722.095	3.09872	-166.838	0.71595
6.10642	-728.863	3.49031	-168.402	0.806425
6.16113	-734.867	2.66478	-169.789	0.615689
6.21185	-745.326	3.85939	-172.205	0.891699
6.26713	-752.656	3.39472	-173.899	0.784341
6.32112	-761.761	3.63023	-176.003	0.838755
6.37733	-767.812	4.07005	-177.401	0.940373
6.43154	-778.8	2.851	-179.939	0.658715
6.48375	-785.829	3.2194	-181.564	0.743834
6.54128	-792.715	4.36737	-183.154	1.00907
6.59721	-805.471	3.66448	-186.102	0.846667
6.65294	-810.035	4.16117	-187.156	0.961427
6.7104	-820.737	4.52045	-189.629	1.04444
6.76566	-832.723	3.3756	-192.398	0.779921
6.81687	-835.616	2.82195	-193.067	0.652002
6.86835	-846.141	3.5995	-195.498	0.831655
6.91733	-853.406	3.82299	-197.177	0.883291
6.96881	-860.815	5.481	-198.889	1.26637
7.01952	-871.144	3.25739	-201.275	0.75261
7.07121	-879.769	3.522	-203.268	0.813747
7.12398	-887.776	3.28934	-205.118	0.759993
7.17768	-894.188	3.34821	-206.6	0.773593
7.23117	-901.072	2.41349	-208.19	0.55763
7.28763	-912.108	3.79654	-210.74	0.87718
7.34488	-921.53	3.87258	-212.917	0.894749
7.40134	-928.214	3.50378	-214.461	0.809538
7.45331	-936.68	3.71741	-216.417	0.858895
7.51202	-944.872	3.9629	-218.31	0.915616
7.56827	-957.249	3.74344	-221.17	0.864911
7.62577	-967.982	3.85433	-223.649	0.890531
7.68204	-973.249	3.42196	-224.866	0.790633
7.73548	-981.651	3.7025	-226.807	0.855452
7.78672	-990.078	3.36903	-228.755	0.778404
7.83794	-995.883	3.07003	-230.096	0.709322
7.89116	-1005.97	3.08508	-232.427	0.712798
7.94162	-1017.18	3.52628	-235.016	0.814736
7.99637	-1025.38	3.93345	-236.911	0.908811
8.05065	-1035.8	4.42896	-239.318	1.0233
8.10636	-1042.77	4.00283	-240.929	0.924842
8.15785	-1055.45	3.66712	-243.859	0.847278
8.21505	-1060.93	2.92731	-245.124	0.676346
8.26628	-1067.7	2.9777	-246.689	0.687988
8.31852	-1076.24	3.17695	-248.663	0.734025
8.37199	-1085.45	3.37462	-250.791	0.779696
8.42873	-1093.94	3.22405	-252.751	0.744906
8.47623	-1102.45	4.66975	-254.719	1.07893
8.52496	-1107.72	3.55153	-255.936	0.820571
8.58195	-1116.92	3.82082	-258.061	0.882789
8.63066	-1121.63	3.06017	-259.15	0.707044
8.67689	-1132	3.29059	-261.545	0.760281
8.72863	-1137.84	2.82099	-262.896	0.651781
8.77587	-1149.3	3.49415	-265.542	0.807313
8.82605	-1155.14	3.89196	-266.892	0.899225
8.87629	-1163.98	3.47283	-268.935	0.802388
8.93052	-1171.15	3.33801	-270.592	0.771237
8.98328	-1179.92	4.38631	-272.617	1.01344
8.9758	-1180.02	3.93436	-272.64	0.909022
8.92796	-1172.75	3.28016	-270.961	0.757872
8.87874	-1166.77	3.85553	-269.58	0.890809
8.82753	-1156.3	3.7533	-267.159	0.867189
8.77807	-1147.48	3.76108	-265.123	0.868987
8.72484	-1138.21	3.57772	-262.98	0.826621
8.67461	-1130.3	3.45679	-261.152	0.798681
8.62412	-1124.44	4.00274	-259.798	0.924821
8.56991	-1115.61	3.91171	-257.758	0.903789
8.52543	-1106.55	3.96144	-255.666	0.91528
8.47041	-1098.18	4.19955	-253.732	0.970293
8.42067	-1094.71	3.4702	-252.928	0.801779
8.36819	-1081.75	3.46074	-249.935	0.799593
8.31296	-1074.19	3.92482	-248.187	0.906818
8.25974	-1065.54	3.6738	-246.19	0.848821
8.20127	-1058.37	3.82945	-244.534	0.884784
8.14453	-1049.69	3.49067	-242.527	0.806509
8.09007	-1040.51	4.25361	-240.408	0.982783
8.03431	-1031.5	3.3044	-238.324	0.763471
7.97852	-1021.56	3.38636	-236.028	0.782409
7.92504	-1008.81	3.99678	-233.082	0.923444
7.86983	-1005.65	3.48026	-232.354	0.804103
7.81485	-996.55	3.93845	-230.25	0.909966
7.75887	-988.829	3.34283	-228.466	0.77235
7.71364	-980.103	4.17839	-226.45	0.965404
7.65841	-972.555	4.00322	-224.706	0.924932
7.59842	-960.074	3.42804	-221.822	0.792039
7.54339	-948.369	3.29859	-219.118	0.76213
7.48812	-944.059	3.2638	-218.122	0.754092
7.42846	-933.163	3.02401	-215.605	0.698689
7.36947	-924.384	3.61853	-213.576	0.83605
7.31875	-913.816	2.88063	-211.135	0.66556
7.26554	-906.371	3.39316	-209.414	0.78398
7.20505	-894.56	2.74023	-206.686	0.633122
7.14931	-886.066	2.99905	-204.723	0.692921
7.09261	-876.901	3.53731	-202.605	0.817286
7.03586	-871.62	3.17852	-201.385	0.734387
6.98138	-861.157	3.19349	-198.968	0.737846
6.92692	-853.883	3.7732	-197.287	0.871787
6.86819	-843.515	3.99081	-194.892	0.922066
6.8132	-837.469	3.14789	-193.495	0.72731
6.75276	-827.799	3.06024	-191.26	0.70706
6.698275	-816.644	2.65067	-188.683	0.612429
6.64299	-809.33	3.15485	-186.993	0.728918
6.58876	-799.475	3.26936	-184.716	0.755377
6.53335	-790.838	3.35843	-182.721	0.775955
6.47508	-783.375	2.99964	-180.996	0.693059
6.42061	-775.376	3.97378	-179.148	0.918129
6.3676	-764.43	3.82083	-176.619	0.88279
6.30968	-759.206	3.56491	-175.412	0.823661
6.25271	-748.66	2.80946	-172.976	0.649117
6.19364	-740.13	3.81666	-171.005	0.881828
6.13692	-727.636	2.98189	-168.118	0.688957
6.082	-719.987	2.85819	-166.351	0.660377
6.02724	-712.611	3.25788	-164.647	0.752724
5.97454	-704.508	2.89788	-162.775	0.669545
5.91929	-694.153	3.25466	-160.382	0.751978
5.86833	-686.372	2.97698	-158.584	0.687823
5.81411	-680.13	2.74015	-157.142	0.633103
5.75956	-671.468	2.64613	-155.141	0.611381
5.70213	-660.729	2.90187	-152.659	0.670469
5.64489	-652.117	3.66837	-150.67	0.847566
5.59019	-643.816	3.08033	-148.752	0.7117
5.53622	-635.196	2.98056	-146.76	0.688651
5.48298	-623.345	3.19503	-144.022	0.738201
5.4278	-619.169	3.89741	-143.057	0.900486
5.37007	-609.238	2.96258	-140.763	0.684495
5.31632	-600.602	3.16463	-138.767	0.731178
5.26037	-594.198	3.12845	-137.288	0.722818
5.20443	-585.927	2.97676	-135.377	0.687772
5.14741	-574.103	3.01772	-132.645	0.697235
5.09118	-564.504	3.22873	-130.427	0.745988
5.03995	-560.771	2.73429	-129.564	0.631749
4.98452	-550.831	3.06103	-127.268	0.707241
4.92405	-542.964	3.62781	-125.45	0.838195
4.8708	-531.63	2.90517	-122.832	0.671231
4.82704	-526.261	2.97178	-121.591	0.686621
4.76836	-515.636	2.70513	-119.136	0.625012
4.71464	-508.183	2.51286	-117.414	0.580588
4.65966	-502.108	3.01039	-116.011	0.695541
4.60667	-493.839	2.97677	-114.1	0.687775
4.55049	-482.548	2.43015	-111.491	0.561479
4.49628	-473.627	2.75921	-109.43	0.637508
4.44175	-463.788	2.79628	-107.157	0.646072
4.38426	-457.121	2.81371	-105.617	0.650099
4.33105	-447.097	2.80615	-103.3	0.648354
4.27832	-440.062	2.66011	-101.675	0.61461
4.22311	-433.516	2.46674	-100.162	0.569932
4.1654	-422.083	2.42264	-97.521	0.559745
4.11394	-416.135	2.27245	-96.1468	0.525043
4.06245	-409.437	2.86462	-94.5992	0.661863
4.00321	-400.444	2.5221	-92.5215	0.582724
3.95097	-392.567	2.4535	-90.7013	0.566874
3.89669	-383.359	2.45725	-88.574	0.567741
3.84654	-374.695	2.9203	-86.5721	0.674726
3.78634	-365.036	2.58582	-84.3405	0.597445
3.7311	-357.32	2.62997	-82.5577	0.607648
3.67491	-348.239	2.60581	-80.4597	0.602064
3.61619	-338.963	2.63209	-78.3163	0.608136
3.56346	-334.503	2.16979	-77.2858	0.501323
3.51023	-322.247	2.44861	-74.4542	0.565745
3.45701	-313.338	2.43676	-72.3958	0.563006
3.40105	-307.922	2.32576	-71.1444	0.53736
3.34857	-297.51	2.5941	-68.7389	0.599359
3.29337	-289.349	2.24462	-66.8532	0.518613
3.23884	-282.584	2.92845	-65.2901	0.67661
3.17921	-274.232	2.00702	-63.3605	0.463715
3.12428	-264.884	2.25986	-61.2007	0.522135
3.07171	-257.173	2.61289	-59.419	0.603701
3.018	-248.161	2.50515	-57.3368	0.578808
2.96584	-239.529	2.39929	-55.3426	0.554349
2.91382	-232.286	2.4538	-53.6689	0.566944
2.8551	-225.516	1.90268	-52.1047	0.43961
2.80588	-217.586	1.55596	-50.2726	0.3595
2.75287	-211.219	1.82612	-48.8015	0.42192
2.68994	-199.647	2.22777	-46.1279	0.514719
2.63691	-190.786	2.50502	-44.0806	0.578777
2.57967	-181.756	2.15832	-41.9943	0.498674
2.52523	-177.034	2.16188	-40.9032	0.499496
2.46902	-165.929	2.14498	-38.3374	0.495591
2.41357	-158.54	2.5061	-36.6303	0.579027
2.35907	-152.098	2.1904	-35.1418	0.506086
2.30289	-142.721	2.04648	-32.9754	0.472834
2.24791	-132.872	2.3293	-30.6998	0.538178
2.19738	-127.128	2.09686	-29.3726	0.484473
2.1454	-118.021	2.14558	-27.2684	0.49573
2.0912	-111.568	1.67031	-25.7775	0.385921
2.03923	-102.872	1.71761	-23.7683	0.396849
1.98128	-93.9466	2.09928	-21.7061	0.485032
1.92482	-86.5344	1.76959	-19.9935	0.408859
1.86861	-78.7447	1.65948	-18.1937	0.383417
1.81188	-69.8796	2.29391	-16.1455	0.530001
1.76067	-62.0154	1.84696	-14.3285	0.426734
1.70421	-52.8636	1.55017	-12.214	0.358163
1.64998	-45.0415	1.53235	-10.4067	0.354046
1.60326	-39.3866	1.86928	-9.10015	0.431891
1.5453	-32.6748	1.53633	-7.54941	0.354964
1.48708	-20.8432	2.08817	-4.81577	0.482464
1.43137	-14.5316	1.81325	-3.35748	0.418946
1.37941	-5.87505	1.78368	-1.35741	0.412113
1.32518	0.910301	1.56968	0.210322	0.36267
1.2719	9.68579	1.56381	2.23787	0.361313
1.22072	15.0737	1.83666	3.48274	0.424354
1.16721	22.6211	1.59455	5.22653	0.368416
1.11202	31.0983	1.46789	7.18518	0.339152
1.06104	39.1628	1.67587	9.04846	0.387206
1.00885	46.1625	1.68644	10.6657	0.389648
0.954372	52.5343	1.65225	12.1379	0.381748
0.898637	59.9794	1.83867	13.8581	0.424818
0.845357	68.9753	1.56521	15.9365	0.361636
0.78764	75.2245	1.38841	17.3804	0.320788
0.731174	83.6938	1.80029	19.3372	0.415952
0.681966	90.6677	1.83274	20.9485	0.42345
0.634725	96.8112	1.44327	22.3679	0.333462
0.581029	103.331	1.45354	23.8742	0.335837
0.529796	109.91	1.26267	25.3943	0.291736
0.476559	115.153	1.44865	26.6058	0.334706
0.422559	121.184	1.19641	27.9993	0.276426
0.373321	126.477	1.44117	29.2222	0.332977
0.321374	131.326	1.51334	30.3426	0.349654
0.268101	135.744	1.27413	31.3631	0.294385
0.212906	142.351	1.40009	32.8897	0.323486
0.160173	147.758	1.5634	34.139	0.361219
0.105426	152.639	1.37604	35.2667	0.31793
0.0491562	156.177	1.29813	36.0842	0.299929
2.28357e-05	162.996	1.31651	37.6597	0.304176