File: data/monolayers/nanoparticles/Ac_CoFe_C/vsm/rescale/AH11_FCw_LangevinSAXSscaled.xye
#Executed at: 2018-11-15 15:45:37.0969
#Loaded File	 = ../rawdata/DD226_2_FCW_100OE.DAT
#Rescale Factor	 = 4.32812
#[[Data]]
#T/K	M/kAm-1	sM/kAm-1	M_raw/memu	sM_raw/memu
10.0041	43.0572	1.12369	9.94823	0.259626
10.0079	42.6364	1.60171	9.85102	0.37007
10.5664	42.5823	1.51807	9.83851	0.350746
11.0462	43.1899	1.60478	9.97891	0.37078
11.5595	44.1336	1.75116	10.1969	0.404599
12.0106	43.3979	1.62209	10.027	0.374779
12.5181	45.1428	1.66458	10.4301	0.384597
13.0511	43.768	1.29719	10.1125	0.299712
13.534	44.4112	1.43691	10.2611	0.331993
14.0586	43.1809	1.1598	9.97682	0.267968
14.5568	44.8631	1.45589	10.3655	0.336378
15.0157	43.9183	1.31594	10.1472	0.304044
15.5586	43.6175	1.37785	10.0777	0.318347
16.0397	43.6197	1.5455	10.0782	0.357083
16.5478	43.2876	1.51047	10.0015	0.348991
17.0206	44.4683	1.22555	10.2743	0.28316
17.5164	43.0475	1.6185	9.94599	0.37395
18.0222	42.7028	1.19208	9.86635	0.275427
18.5125	42.2907	1.22506	9.77115	0.283046
19.0208	44.6475	1.26154	10.3157	0.291476
19.5143	43.4321	1.48636	10.0348	0.34342
20.0105	43.0756	1.41591	9.9525	0.327141
21.3169	42.995	1.46775	9.93387	0.339119
21.5465	43.0521	1.38097	9.94707	0.319068
22.0378	44.207	1.25492	10.2139	0.289946
22.5031	43.323	1.50413	10.0097	0.347525
23.0099	42.6684	1.30095	9.8584	0.300581
23.5474	43.9808	1.49055	10.1616	0.344388
24.035	43.3659	1.47501	10.0196	0.340798
24.5202	43.0021	1.32288	9.93551	0.305648
25.0225	44.2715	1.57695	10.2288	0.364349
25.5103	42.6227	1.39536	9.84785	0.322394
26.0274	43.1114	1.35361	9.96076	0.312748
26.5436	43.7327	1.47329	10.1043	0.340399
27.0029	43.7132	1.37881	10.0998	0.31857
27.5235	43.7856	1.53042	10.1165	0.353599
28.0645	44.0981	1.61	10.1887	0.371987
28.5025	43.8397	1.46307	10.129	0.338039
29.0224	43.305	1.41374	10.0055	0.326641
29.5211	42.8287	1.67374	9.89544	0.386712
30.0019	43.0556	1.5434	9.94787	0.356599
30.5626	43.4755	1.44562	10.0449	0.334007
31.6379	43.237	1.68329	9.98977	0.388919
32.0504	43.4814	1.40724	10.0463	0.325138
32.505	43.7234	1.55406	10.1022	0.35906
33.0262	41.9732	1.63614	9.69779	0.378024
33.5422	43.3454	1.231	10.0148	0.284419
34.0087	43.2061	1.59623	9.98265	0.368805
34.5596	44.7889	1.44097	10.3483	0.332932
35.0661	42.9324	1.28717	9.91941	0.297397
35.5059	44.6358	1.28591	10.313	0.297107
36.0109	42.6982	1.35065	9.86528	0.312063
36.5015	43.749	1.48515	10.1081	0.34314
37.012	43.1149	1.25348	9.96157	0.289613
37.5307	43.9379	1.51326	10.1517	0.349635
38.0554	43.9634	1.34816	10.1576	0.311489
38.5048	43.0514	1.47192	9.94689	0.340082
39.0156	43.1589	1.44343	9.97174	0.3335
39.541	42.8878	1.42585	9.90911	0.329437
40.0409	43.5049	1.30838	10.0517	0.302297
40.5421	42.4899	1.35419	9.81717	0.312882
41.0533	43.5214	1.69732	10.0555	0.392161
42.0855	44.4109	1.2606	10.261	0.291259
42.5172	43.1065	1.19328	9.95963	0.275703
43.0052	42.1517	1.2842	9.73902	0.29671
43.5337	41.6642	1.2474	9.62638	0.288208
44.009	43.5405	1.29195	10.0599	0.298502
44.5062	43.5629	1.61852	10.0651	0.373954
45.023	42.0573	1.27651	9.71723	0.294935
45.5218	43.8424	1.49433	10.1296	0.34526
46.0276	43.8503	1.24063	10.1315	0.286644
46.557	44.2526	1.35686	10.2244	0.313499
47.0025	42.2699	1.34583	9.76634	0.31095
47.5057	42.8039	1.21827	9.8897	0.281479
48.054	42.7515	1.29423	9.8776	0.299027
48.5424	43.9724	1.42306	10.1597	0.328793
49.0506	44.9513	1.49663	10.3859	0.345791
49.5542	43.6012	1.70814	10.0739	0.39466
50.0231	42.4005	1.61706	9.79651	0.373618
50.51157	43.7532	1.52176	10.109	0.351598
51.0504	42.8563	1.42525	9.90182	0.329301
51.5346	42.5008	1.60431	9.81968	0.370671
52.5035	44.4446	1.4476	10.2688	0.334464
53.0008	44.1422	1.53283	10.1989	0.354155
53.5042	43.392	1.5076	10.0256	0.348327
54.0614	44.0954	1.28475	10.1881	0.296837
54.5517	43.9036	1.30865	10.1438	0.30236
55.0007	41.9578	1.47462	9.69422	0.340706
55.51	43.2084	1.37453	9.98317	0.317581
56.0028	43.8126	1.4191	10.1228	0.32788
56.5031	42.1176	1.38968	9.73115	0.321081
57.0447	43.329	1.5625	10.011	0.36101
57.5331	43.2303	1.40103	9.98822	0.323703
58.0191	43.3132	1.38754	10.0074	0.320587
58.5583	41.6589	1.28734	9.62516	0.297436
59.0641	43.4706	1.61814	10.0438	0.373866
59.5078	43.2121	1.54193	9.98403	0.356258
60.0313	42.9845	1.489	9.93144	0.34403
60.5509	42.1783	1.25517	9.74518	0.290003
61.0343	42.2968	1.34007	9.77255	0.30962
61.5856	43.8902	1.3765	10.1407	0.318036
62.018	44.3123	1.51802	10.2382	0.350734
62.9788	44.7856	1.56389	10.3476	0.361333
63.0067	43.8339	1.50995	10.1277	0.34887
63.5445	42.7882	1.4314	9.88608	0.330721
64.063	42.0716	1.50426	9.72053	0.347555
64.5607	43.8938	1.2821	10.1415	0.296226
65.0043	45.104	1.13304	10.4212	0.261785
65.5256	42.3343	1.52423	9.78122	0.352168
66.0165	43.0321	1.39359	9.94243	0.321984
66.5334	43.6041	1.5211	10.0746	0.351447
67.0207	42.4576	1.82549	9.8097	0.421775
67.5048	45.0426	1.25606	10.407	0.29021
68.0078	43.4173	1.2549	10.0314	0.28994
68.5009	42.4601	1.39902	9.81027	0.323239
69.0529	43.7119	1.30549	10.0995	0.30163
69.543	42.8614	1.39251	9.903	0.321735
70.0399	43.3963	1.40979	10.0266	0.325727
70.5382	42.9628	1.3237	9.92644	0.305837
71.037	42.1402	1.5204	9.73636	0.351284
71.5141	42.6987	1.64271	9.86541	0.379543
72.0025	44.4637	1.31376	10.2732	0.303541
72.5083	43.8031	1.40515	10.1206	0.324656
73.3679	42.8427	1.26222	9.89868	0.291633
73.5668	42.4469	1.44379	9.80723	0.333582
74.0268	44.4792	1.39453	10.2768	0.322201
74.5572	44.3083	1.28296	10.2373	0.296423
75.0336	42.534	1.39326	9.82735	0.321908
75.529	44.2669	1.20875	10.2277	0.279279
76.019	43.5254	1.40247	10.0564	0.324037
76.5107	42.4724	1.56606	9.81313	0.361833
77.0151	43.9125	1.51861	10.1459	0.35087
77.5121	43.3909	1.46963	10.0253	0.339553
78.05233	42.4806	1.54504	9.81501	0.356978
78.5775	42.9988	1.47387	9.93475	0.340533
79.0397	42.8126	1.61589	9.89173	0.373347
79.5312	43.016	1.44079	9.93873	0.332891
80.0707	42.4775	1.33391	9.8143	0.308196
80.515	42.8243	1.42593	9.89443	0.329457
81.0642	43.6222	1.28269	10.0788	0.296362
81.5483	43.6598	1.25415	10.0875	0.289767
82.0313	43.9222	1.08924	10.1481	0.251666
82.5667	42.4723	1.50344	9.8131	0.347366
83.9273	42.9556	1.32534	9.92477	0.306215
84.0387	43.7088	1.11646	10.0988	0.257955
84.6249	42.2543	1.21605	9.76273	0.280966
85.0375	43.102	1.50302	9.95859	0.347268
85.5394	44.3015	1.25538	10.2357	0.290053
86.0791	43.3614	1.21752	10.0185	0.281304
86.5442	43.8556	1.37189	10.1327	0.316972
87.0317	43.7831	1.3911	10.116	0.321409
87.5974	43.0582	1.51186	9.94847	0.34931
88.0499	43.8044	1.27561	10.1209	0.294727
88.5002	44.1771	1.49626	10.207	0.345705
89.0105	42.8918	1.30011	9.91003	0.300387
89.5462	44.6793	1.52877	10.323	0.353218
90.0413	43.9225	1.51023	10.1482	0.348934
90.544	44.9748	1.40751	10.3913	0.325202
91.0363	43.3932	1.54026	10.0259	0.355872
91.6192	43.7616	1.42855	10.111	0.330063
92.0375	43.0169	1.45548	9.93893	0.336284
92.5866	43.9807	1.48826	10.1616	0.343857
93.0558	44.4777	1.38145	10.2764	0.319179
94.4571	43.5397	1.33615	10.0597	0.308713
94.5697	43.5354	1.59598	10.0587	0.368746
95.0371	43.749	1.57233	10.1081	0.363283
95.5354	43.6441	1.16983	10.0838	0.270287
96.0612	42.5721	1.6441	9.83615	0.379863
96.5285	42.936	1.28895	9.92024	0.297809
97.1048	43.1038	1.31689	9.95901	0.304263
97.5342	42.8618	1.10973	9.90309	0.256399
98.0282	42.8678	1.6821	9.90447	0.388644
98.5083	41.929	1.47084	9.68758	0.339833
99.0025	42.7341	1.37659	9.87359	0.318058
99.5501	42.1035	1.40265	9.72788	0.324078
100.067	42.9569	1.43192	9.92506	0.330841
100.535	42.0596	1.53797	9.71776	0.355343
101.024	43.6555	1.45791	10.0865	0.336846
101.517	43.5792	1.15537	10.0688	0.266944
102.003	42.3847	1.48818	9.79285	0.34384
102.546	43.0096	1.44962	9.93724	0.334931
103.039	44.0266	1.41276	10.1722	0.326413
103.554	43.457	1.33569	10.0406	0.308607
104.721	43.0392	1.28129	9.94407	0.296038
105.006	42.4653	1.44238	9.81148	0.333258
105.503	42.889	1.57141	9.90939	0.363069
106.018	42.3892	1.23759	9.7939	0.285941
106.524	42.1078	1.69325	9.72888	0.391221
107.008	43.356	1.39625	10.0173	0.322599
107.517	42.3876	1.17988	9.79352	0.272607
108.051	44.0772	1.54637	10.1839	0.357284
108.508	42.305	1.49969	9.77445	0.346498
109.024	43.6126	1.40531	10.0766	0.324692
109.525	42.014	1.51918	9.70721	0.351001
110.047	41.8472	1.2175	9.66866	0.281299
110.539	42.556	1.27994	9.83245	0.295727
111.04	43.1891	1.43532	9.9787	0.331625
111.527	42.5704	1.53703	9.83576	0.355127
112.02	43.9561	1.27086	10.1559	0.293629
112.507	42.623	1.38682	9.84792	0.32042
113.012	43.9838	1.41215	10.1623	0.326272
113.515	44.1655	1.55588	10.2043	0.359481
114.026	41.5205	1.45454	9.59318	0.336068
115.206	42.7514	1.53067	9.87759	0.353658
115.559	43.2628	1.4506	9.99575	0.335156
116.044	41.5893	1.51331	9.60908	0.349646
116.547	42.592	1.37875	9.84075	0.318555
117.045	42.1621	1.31252	9.74142	0.303253
117.532	42.9268	1.61356	9.91812	0.372808
118.019	41.6031	1.2702	9.61227	0.293475
118.514	43.0999	1.52119	9.9581	0.351467
119.007	42.2458	1.45643	9.76077	0.336503
119.554	43.8556	1.32655	10.1327	0.306496
120.045	42.4311	1.11346	9.80359	0.257261
120.551	42.828	1.32661	9.89527	0.306508
121.017	43.624	1.55389	10.0792	0.359021
121.52	43.1328	1.36713	9.9657	0.315872
122.07	41.5078	1.54293	9.59025	0.35649
122.543	42.1539	1.50844	9.73954	0.34852
123.06	41.428	1.37199	9.57182	0.316995
123.551	42.2617	1.58781	9.76444	0.366858
124.036	41.7561	1.36382	9.64762	0.315107
124.533	42.8227	1.46991	9.89405	0.339619
125.576	43.5385	1.62307	10.0594	0.375006
126.027	42.6499	1.48531	9.85413	0.343176
126.508	43.8606	1.26942	10.1339	0.293296
127.003	42.2327	1.55581	9.75775	0.359466
127.513	41.8465	1.4195	9.66852	0.327972
128.054	42.0323	1.59567	9.71144	0.368674
128.538	43.6417	1.35758	10.0833	0.313664
129.054	40.7346	1.5752	9.4116	0.363946
129.524	42.403	1.40337	9.79708	0.324245
130.008	42.2637	1.21982	9.76489	0.281836
130.542	41.1119	1.58775	9.49879	0.366844
131.012	41.9632	1.44831	9.69548	0.334627
131.519	42.1992	1.35215	9.75001	0.312411
132.008	41.4727	1.4822	9.58213	0.342457
132.552	42.4331	1.44359	9.80404	0.333537
133.041	41.9462	1.48768	9.69154	0.343724
133.517	42.1895	1.44749	9.74775	0.334439
134.053	41.1511	1.42149	9.50783	0.328431
134.566	41.9382	1.51371	9.6897	0.349737
135.014	40.8667	1.43319	9.44212	0.331134
135.96	42.7303	1.31152	9.87271	0.303022
136.016	40.8965	1.33018	9.44902	0.307334
136.558	41.3347	1.43647	9.55027	0.331892
137.055	41.6266	1.41465	9.61769	0.32685
137.532	40.8892	1.4452	9.44733	0.33391
138.049	40.6673	1.38512	9.39606	0.320027
138.504	40.9107	1.29047	9.45229	0.29816
139.091	40.3301	1.48374	9.31814	0.342813
139.506	41.4532	1.40573	9.57764	0.324789
140.059	41.0854	1.81259	9.49266	0.418794
140.579	41.3964	1.40289	9.56452	0.324133
141.049	42.8819	1.52755	9.90773	0.352936
141.538	41.2278	1.51101	9.52556	0.349114
142.003	41.9918	1.41293	9.70208	0.326453
142.544	41.922	1.31599	9.68595	0.304055
143.028	41.897	1.48433	9.68017	0.342951
143.52	43.36	1.33321	10.0182	0.308035
144.009	42.1091	1.47465	9.72917	0.340712
144.542	42.9058	1.37486	9.91327	0.317657
145.029	42.7078	1.60109	9.86752	0.369927
145.527	40.6964	1.57806	9.40278	0.364605
146.417	43.1473	1.65703	9.96905	0.382852
146.528	41.4093	1.35135	9.56749	0.312225
147.068	40.9027	1.71617	9.45045	0.396517
147.516	42.1708	1.68062	9.74343	0.388303
148.039	42.5347	1.17345	9.82753	0.271122
148.566	43.5979	1.41379	10.0732	0.326652
149.013	41.661	1.61058	9.62565	0.37212
149.504	42.9557	1.29441	9.92478	0.29907
150.059	42.8598	1.28987	9.90262	0.29802
150.561	43.3019	1.62193	10.0048	0.374742
151.011	41.9524	1.63203	9.69297	0.377076
151.53	41.6788	1.85777	9.62977	0.429231
152.018	42.8917	1.76048	9.90999	0.406754
152.512	43.7941	1.34699	10.1185	0.311219
153.005	41.5599	1.5268	9.60229	0.352762
153.559	41.5707	1.14718	9.60479	0.265053
154.038	43.2247	1.78088	9.98694	0.411467
154.517	40.3428	1.19991	9.32109	0.277236
155.057	41.703	1.32384	9.63536	0.305869
155.545	40.846	1.35339	9.43735	0.312697
156.039	42.1087	1.34792	9.72909	0.311434
156.844	41.8904	1.48478	9.67866	0.343053
157.03	42.7144	1.32849	9.86904	0.306943
157.56	42.4614	1.63671	9.81058	0.378156
158.04	42.612	1.36958	9.84538	0.316437
158.543	42.1036	1.34443	9.72792	0.310627
159.016	42.2591	1.53641	9.76384	0.354983
159.538	42.7199	1.59596	9.8703	0.368742
160.028	41.5517	1.9834	9.6004	0.458259
160.538	43.7034	1.53794	10.0975	0.355336
161.004	42.4253	1.64315	9.80224	0.379645
161.544	41.7796	1.52588	9.65306	0.35255
162.033	43.179	1.34242	9.97639	0.310162
162.513	41.8503	1.51998	9.66939	0.351187
163.005	41.622	1.61595	9.61664	0.37336
163.553	41.2846	1.36468	9.53869	0.315305
164.032	42.8485	1.42437	9.90001	0.329096
164.503	43.7862	1.8049	10.1167	0.417017
165.002	41.4998	1.37574	9.58841	0.31786
165.512	42.7551	1.41846	9.87843	0.327732
166.018	41.6946	1.85019	9.63342	0.42748
167.236	42.3676	1.36335	9.78892	0.314999
167.54	41.2698	1.50599	9.53526	0.347954
168.035	42.109	1.61286	9.72915	0.372647
168.509	42.7262	1.3823	9.87176	0.319377
169.065	42.2987	1.58235	9.77299	0.365597
169.521	41.0136	1.60073	9.47606	0.369844
170.011	41.678	1.18843	9.62959	0.274582
170.555	43.6857	1.75008	10.0935	0.404351
171.004	40.4915	1.56252	9.35544	0.361016
171.559	41.9241	1.48399	9.68643	0.342872
172.004	41.9985	1.46737	9.70363	0.339031
172.526	42.8377	1.41606	9.89753	0.327176
173.045	41.0131	1.25272	9.47596	0.289437
173.534	42.5118	1.67487	9.82222	0.386974
174.064	41.9179	1.58627	9.68501	0.366502
174.565	42.9754	1.47389	9.92935	0.340537
175.047	41.8716	1.72731	9.67431	0.39909
175.544	43.78	1.6185	10.1152	0.37395
176.04	43.3804	1.29861	10.0229	0.30004
176.528	42.1139	1.20667	9.73029	0.278799
177.66	42.1205	1.70174	9.7318	0.393183
178.042	41.5824	1.39343	9.60749	0.321947
178.521	42.1621	1.72816	9.74143	0.399287
179.001	42.5532	1.48008	9.8318	0.341967
179.533	42.5052	1.32089	9.8207	0.305188
180.023	42.517	1.66383	9.82342	0.384422
180.514	42.562	1.5899	9.83382	0.367341
181.003	41.2465	1.55033	9.52989	0.3582
181.501	43.0954	1.77007	9.95706	0.40897
182.055	42.7399	1.68044	9.87493	0.388261
182.531	41.1337	1.79848	9.50381	0.415533
183.013	43.0719	1.75062	9.95163	0.404475
183.501	42.5558	1.50156	9.83239	0.34693
184.014	40	1.72798	9.24188	0.399244
184.558	40.7895	1.42463	9.42429	0.329156
185.043	43.2326	1.41437	9.98875	0.326786
185.525	42.4342	1.3691	9.80429	0.316327
186.061	42.0761	1.4268	9.72156	0.329658
186.53	41.5047	1.85622	9.58953	0.428874
187.002	43.3124	1.71375	10.0072	0.395958
188.104	40.3562	1.56098	9.32417	0.36066
188.515	42.9575	1.79722	9.9252	0.415243
189.051	41.5298	1.73289	9.59533	0.400379
189.547	40.784	1.25338	9.42302	0.289589
190.005	41.0201	1.40127	9.47758	0.32376
190.544	42.872	1.73485	9.90546	0.400832
191.025	42.8511	1.27581	9.90062	0.294771
191.537	42.3109	1.73643	9.77581	0.401196
192.024	44.0421	1.6957	10.1758	0.391787
192.519	42.9633	1.56336	9.92654	0.361209
193.011	42.2903	1.2999	9.77105	0.300339
193.509	40.9431	1.53109	9.45979	0.353753
194.034	42.1503	1.59127	9.73869	0.367658
194.513	40.9627	1.39161	9.46431	0.321528
195.05	44.8038	1.8269	10.3518	0.4221
195.547	43.5899	1.55312	10.0713	0.358845
196.046	42.7169	1.76267	9.8696	0.40726
196.527	41.6413	1.78058	9.6211	0.411398
197.024	42.5622	1.46572	9.83387	0.338651
197.543	41.7996	1.59364	9.65767	0.368205
198.562	43.7672	1.56765	10.1123	0.362201
199.017	43.6905	1.84344	10.0946	0.425921
199.532	44.0095	1.6285	10.1683	0.37626
200.033	42.9433	1.52968	9.92193	0.353428
200.512	41.6525	1.43009	9.62368	0.330418
201.005	41.9254	1.61316	9.68673	0.372715
201.548	42.2972	1.45388	9.77265	0.335915
202.034	40.4734	1.34933	9.35127	0.311759
202.553	40.4108	1.31948	9.33679	0.304861
203.032	42.5832	1.69794	9.83873	0.392305
203.525	42.7089	1.69413	9.86777	0.391424
204.055	41.8888	1.71472	9.67829	0.396181
204.53	42.6696	1.57442	9.85868	0.363764
205.012	43.931	1.47849	10.1501	0.341601
205.501	41.9104	1.3074	9.68328	0.302072
206.035	42.151	1.85323	9.73887	0.428184
206.52	41.7704	1.67972	9.65092	0.388094
207.067	42.2532	1.36466	9.76247	0.315302
207.518	42.7301	1.1275	9.87266	0.260507
208.045	41.3714	1.60874	9.55874	0.371695
208.917	42.1967	1.48922	9.74942	0.344081
209.022	41.2531	1.45911	9.5314	0.337123
209.51	41.6758	1.6216	9.62907	0.374666
210.046	40.7615	1.88904	9.41783	0.436456
210.531	43.5785	1.62753	10.0687	0.376037
211.019	41.5338	1.35157	9.59627	0.312276
211.517	41.9591	1.68384	9.69453	0.389047
212.014	40.086	1.7073	9.26175	0.394467
212.562	40.3367	1.84688	9.31966	0.426715
213.049	40.1399	1.745	9.27422	0.403177
213.54	42.4964	1.61991	9.81867	0.374275
214.013	41.5847	1.58848	9.60801	0.367014
214.535	40.2412	1.52172	9.2976	0.351589
215.037	40.9578	1.65109	9.46317	0.381479
215.525	43.3712	1.64427	10.0208	0.379903
216.034	41.5694	1.59914	9.60449	0.369476
216.559	41.8013	1.64883	9.65808	0.380957
217.065	42.468	1.43647	9.81212	0.331892
217.539	40.9553	1.34109	9.4626	0.309855
218	42.534	1.79056	9.82735	0.413704
218.531	43.4147	1.72588	10.0308	0.398759
219.385	40.7363	1.34348	9.412	0.310408
219.54	40.9915	1.54884	9.47097	0.357856
220.005	40.7083	1.51882	9.40554	0.350918
220.554	41.0242	1.27115	9.47851	0.293696
221.005	41.697	1.9263	9.63396	0.445067
221.537	41.1526	1.48426	9.50818	0.342934
222.022	40.8627	1.58255	9.4412	0.365644
222.54	41.7029	1.50934	9.63533	0.348727
223.023	40.2607	1.79558	9.30211	0.414862
223.5	41.8232	1.36831	9.66312	0.316143
224.004	41.7452	1.58382	9.6451	0.365936
224.552	40.1853	1.59552	9.2847	0.36864
225.028	40.3906	1.54715	9.33212	0.357465
225.503	40.0383	1.71436	9.25072	0.396098
226.063	42.1402	1.671	9.73637	0.38608
226.545	40.5609	1.54801	9.37146	0.357662
227.02	41.6467	1.62865	9.62234	0.376295
227.56	40.9053	1.63214	9.45105	0.377102
228.05	41.0528	1.70746	9.48514	0.394503
228.52	41.3449	1.95169	9.55263	0.450933
229.016	41.0262	1.35497	9.47897	0.313061
229.844	41.7399	1.9729	9.64387	0.455832
230.034	40.1786	1.46326	9.28315	0.338082
230.553	41.4552	1.73242	9.57811	0.40027
231.013	41.2347	1.50929	9.52715	0.348718
231.506	41.487	1.78506	9.58544	0.412432
232.051	41.0742	1.65607	9.49007	0.38263
232.53	42.0283	1.78778	9.71051	0.413061
233.014	38.9461	1.50548	8.99838	0.347837
233.513	41.0264	1.70112	9.47903	0.393038
234.042	39.0955	1.6314	9.03291	0.376931
234.526	39.8021	1.72982	9.19617	0.39967
235.019	40.5812	1.57106	9.37617	0.362989
235.524	40.698	1.90436	9.40314	0.439997
236.025	39.1796	1.5194	9.05232	0.351054
236.513	41.9919	1.77109	9.70211	0.409206
237.003	40.8728	1.3987	9.44353	0.323166
237.557	40.0428	1.58753	9.25176	0.366793
238.045	39.8696	1.59914	9.21175	0.369478
238.558	41.0726	1.9523	9.48971	0.451073
239.028	39.7652	1.98969	9.18763	0.459712
240.276	40.3607	1.54348	9.32522	0.356615
240.512	40.3606	1.38977	9.3252	0.321101
241.001	41.6486	1.41108	9.62279	0.326026
241.531	37.7251	1.87735	8.71626	0.433755
242.034	39.7711	1.28839	9.18899	0.29768
242.562	40.5941	1.94763	9.37913	0.449993
243.026	40.266	1.76147	9.30334	0.406983
243.538	39.9967	1.78312	9.24111	0.411984
244.051	40.6774	1.86443	9.3984	0.43077
244.513	42.0816	1.86002	9.72283	0.429751
245.038	39.1653	1.88136	9.04903	0.434684
245.51	41.178	1.82852	9.51406	0.422474
246.008	41.221	1.788	9.524	0.413113
246.536	39.7323	1.91318	9.18002	0.442034
247.028	41.3498	1.74049	9.55374	0.402134
247.522	39.1187	1.57308	9.03825	0.363456
248.013	42.0576	1.75792	9.71728	0.406162
248.549	39.008	2.14163	9.01267	0.494817
249.053	41.0425	1.84491	9.48274	0.426261
249.535	38.1856	1.68572	8.82266	0.38948
250.723	39.1645	1.9717	9.04885	0.455556
251.027	38.6957	1.70373	8.94053	0.393641
251.523	39.4589	1.81539	9.11685	0.419441
252.009	38.9747	1.65039	9.00499	0.381318
252.506	40.5269	1.67207	9.36362	0.386327
253.023	38.9757	1.74372	9.00523	0.402881
253.519	39.3911	1.52197	9.10121	0.351647
254.052	40.0069	1.59792	9.24347	0.369195
254.552	40.0483	2.04765	9.25305	0.473104
255.046	38.0478	1.89634	8.79083	0.438145
255.527	39.0132	1.64414	9.01389	0.379874
256.013	38.2733	1.73525	8.84294	0.400925
256.5	39.1798	1.32684	9.05239	0.306562
257.037	38.6054	1.78107	8.91966	0.41151
257.525	40.3082	1.58912	9.31309	0.367161
258.01	39.0811	1.44067	9.02956	0.332863
258.505	37.9	1.86769	8.75667	0.431525
259.04	37.8553	1.62212	8.74635	0.374787
259.505	40.7977	2.11956	9.4262	0.489717
260.001	40.1329	1.75656	9.27258	0.405848
261.122	41.1555	1.95985	9.50885	0.452818
261.533	38.8605	1.91057	8.97861	0.441431
262.021	38.4851	1.37459	8.89186	0.317595
262.518	36.898	2.02261	8.52517	0.467319
263.026	38.2843	1.62007	8.84546	0.374312
263.504	38.4261	1.80848	8.87824	0.417843
264.069	39.0285	1.33218	9.01741	0.307796
264.552	37.3878	1.37168	8.63834	0.316921
265.035	36.8878	1.71391	8.52281	0.395995
265.532	38.3413	1.52751	8.85865	0.352926
266.022	37.3032	1.70471	8.6188	0.393869
266.519	38.1958	1.51139	8.82503	0.349203
267.021	37.5926	1.85158	8.68567	0.427802
267.524	37.7068	1.73778	8.71204	0.401508
268.007	40.001	1.43856	9.24211	0.332375
268.502	37.3786	1.5993	8.63622	0.369513
269.05	39.4532	1.78924	9.11555	0.413399
269.535	36.8279	1.92807	8.50898	0.445476
270.019	38.673	1.59157	8.93529	0.367727
270.553	38.4443	1.07556	8.88245	0.248506
271.567	38.5044	1.93036	8.89633	0.446003
272.038	39.4839	1.56182	9.12263	0.360855
272.53	39.7357	1.49819	9.18082	0.346153
273.017	39.6462	1.72961	9.16013	0.399622
273.512	39.1942	1.80522	9.05569	0.417092
274.01	38.0704	1.9251	8.79605	0.444788
274.558	39.1327	2.3603	9.04148	0.54534
275.002	35.3274	1.51842	8.16228	0.350826
275.543	38.9316	1.55582	8.99502	0.359467
276.019	39.3268	1.70164	9.08634	0.393159
276.505	36.312	1.61042	8.38978	0.372082
277.041	37.2699	1.65051	8.61109	0.381345
277.538	38.3233	1.98421	8.85449	0.458445
278.035	34.4545	1.66613	7.96061	0.384955
278.506	36.3115	1.53875	8.38967	0.355523
279.059	36.597	2.1471	8.45562	0.49608
279.546	37.8167	1.65873	8.73743	0.383244
280.048	38.0447	1.63916	8.79011	0.378724
280.517	37.7146	1.95475	8.71384	0.451639
281.051	36.7408	2.02389	8.48886	0.467614
281.881	37.3361	1.74446	8.62639	0.403052
282.057	37.5451	1.83064	8.67469	0.422964
282.539	36.929	1.71909	8.53234	0.397191
283.03	36.2525	2.00029	8.37603	0.462162
283.518	35.7952	1.94827	8.27038	0.450141
284.017	37.1963	1.54286	8.59408	0.356473
284.556	38.3333	1.61741	8.85678	0.373698
285.001	37.1378	1.65199	8.58057	0.381688
285.52	35.4496	1.58649	8.19053	0.366553
286.013	34.8918	1.71133	8.06165	0.395397
286.519	35.1853	1.57294	8.12947	0.363423
287.015	36.8396	1.8873	8.51168	0.436055
287.554	36.4733	1.6429	8.42704	0.379588
288.005	36.0323	1.83321	8.32515	0.423558
288.553	37.1629	1.478	8.58637	0.341488
289.042	35.1887	1.78194	8.13025	0.411713
289.546	32.6436	2.11279	7.54221	0.488155
290.03	37.7966	1.64074	8.73279	0.379088
290.527	36.4865	1.85981	8.4301	0.429703
291.017	37.2594	1.51086	8.60868	0.34908
291.503	36.7443	2.10554	8.48966	0.486478
292.368	36.4931	1.71842	8.43162	0.397035
292.515	35.5912	1.80514	8.22325	0.417073
293.014	37.8195	1.6765	8.73809	0.387349
293.557	34.4836	1.95039	7.96734	0.450631
294.05	34.2036	1.6221	7.90265	0.374781
294.53	35.9069	1.94766	8.29618	0.45
295.025	35.3411	1.93922	8.16546	0.448051
295.55	35.712	2.29477	8.25116	0.530199
296.004	37.2168	1.77627	8.59884	0.410402
296.555	35.4345	1.96617	8.18703	0.454278
297.063	34.5544	1.48151	7.98369	0.342299
297.553	37.2912	1.70489	8.61602	0.39391
298.004	35.401	2.24438	8.1793	0.518558
298.545	34.5649	1.92646	7.98611	0.445103
299.023	36.8365	1.74796	8.51095	0.403862
299.529	35.4782	2.0964	8.19712	0.484367
300.003	34.1087	1.87545	7.8807	0.433317
300.565	34.7848	1.86341	8.03693	0.430536
301.017	33.669	1.96954	7.77913	0.455056
301.525	37.0707	1.79672	8.56508	0.415128
302.764	34.7026	1.97917	8.01794	0.457281
303.06	34.7327	1.88414	8.02488	0.435324
303.528	35.326	1.79817	8.16197	0.415462
304.008	34.4834	2.08353	7.96728	0.481394
304.556	36.1405	2.082	8.35017	0.48104
305.047	35.1009	1.9	8.10997	0.43899
305.529	33.9452	2.08482	7.84294	0.48169
306.016	32.618	2.3817	7.53628	0.550285
306.504	33.3132	1.85355	7.69691	0.428256
307.059	33.6532	1.9566	7.77547	0.452066
307.533	37.3557	2.06127	8.63092	0.476251
308.001	33.9735	2.033	7.84947	0.469718
308.589	34.7076	1.32583	8.0191	0.306329
309.055	31.423	1.71658	7.26019	0.396612
309.545	31.8002	1.85255	7.34734	0.428025
310.061	33.8855	2.06046	7.82915	0.476062
310.527	33.4994	1.77847	7.73994	0.41091
311.017	31.6202	2.18204	7.30575	0.504155
311.506	34.6545	2.09414	8.00681	0.483845
312	33.5793	1.83406	7.75839	0.423755
313.187	33.625	1.74839	7.76896	0.40396
313.579	34.7472	1.709	8.02824	0.394859
314.06	34.3202	1.8364	7.92958	0.424295
314.518	31.8353	2.0867	7.35545	0.482126
315	34.007	2.02012	7.85722	0.466743
315.551	32.6762	2.21274	7.54975	0.511247
316.041	32.0875	1.73214	7.41372	0.400206
316.539	33.6674	1.69348	7.77876	0.391274
317.043	32.0012	1.87332	7.39377	0.432824
317.525	35.6989	1.83833	8.24813	0.424741
318.024	35.0479	2.27838	8.09771	0.526412
318.525	33.6727	1.96622	7.77997	0.45429
319.072	31.3388	1.75257	7.24073	0.404925
319.529	33.7069	1.90924	7.78787	0.441125
320.003	35.3788	1.92025	8.17416	0.443668
320.533	32.0581	1.77201	7.40694	0.409417
321.057	34.341	1.90196	7.93439	0.439443
321.511	31.7692	2.06915	7.34018	0.47807
322.013	32.6577	1.9255	7.54547	0.44488
322.503	32.3995	1.82612	7.48581	0.42192
323.561	32.6768	1.82185	7.54988	0.420934
324.008	32.5377	1.82719	7.51775	0.422167
324.523	28.7108	2.02186	6.63354	0.467146
325.055	31.7662	2.02661	7.33949	0.468242
325.534	32.4882	2.05917	7.5063	0.475765
326.016	28.6466	1.95952	6.61872	0.452742
326.518	32.0296	1.8084	7.40034	0.417825
327.061	32.8552	1.8273	7.59109	0.422191
327.549	32.0761	1.97374	7.41109	0.456026
328.034	32.5	1.80975	7.50903	0.418137
328.503	33.4485	1.99657	7.72818	0.461301
329.053	32.2041	2.14693	7.44066	0.496041
329.527	33.4358	1.65699	7.72525	0.382842
330.022	30.2435	2.16163	6.98766	0.499437
330.52	32.1414	1.40375	7.42619	0.324333
331.065	31.0063	1.72863	7.16392	0.399394
331.515	31.8557	1.83773	7.36016	0.424602
332.04	29.5696	1.91303	6.83196	0.441999
332.508	29.8491	2.22452	6.89656	0.513968
333.051	31.8402	2.08243	7.35659	0.48114
334.034	30.4183	1.9429	7.02806	0.448902
334.551	30.8714	2.03315	7.13276	0.469753
335.026	28.6604	1.91843	6.62191	0.443249
335.501	30.3216	1.72288	7.00572	0.398066
336.044	31.8433	2.10018	7.35729	0.48524
336.505	29.8114	1.62057	6.88784	0.374427
337.039	27.5162	1.69502	6.35754	0.391629
337.503	30.9155	1.77003	7.14294	0.408961
338.013	31.0652	2.03319	7.17753	0.469763
338.504	28.818	1.97109	6.65832	0.455415
339.037	30.7128	2.04983	7.0961	0.473607
339.515	29.2562	1.52244	6.75956	0.351755
340.031	28.33	1.84228	6.54557	0.425653
340.513	31.1024	1.8999	7.18611	0.438966
341.035	31.385	2.04819	7.25142	0.473229
341.512	30.1948	1.87948	6.97641	0.434249
342.04	26.5372	1.67111	6.13135	0.386106
342.516	27.7364	1.64757	6.40842	0.380665
343.028	28.9788	2.14942	6.69547	0.496618
343.533	30.2258	2.39822	6.98359	0.554101
344.394	27.1843	2.09893	6.28086	0.484952
344.519	30.6444	1.90092	7.0803	0.439201
345.037	31.2002	1.78922	7.20871	0.413393
345.514	31.0697	2.18352	7.17856	0.504497
346.059	30.8846	2.46521	7.13579	0.569579
346.555	29.2672	1.9833	6.7621	0.458235
347.005	26.8407	1.77316	6.20147	0.409683
347.528	29.0756	1.94991	6.71782	0.45052
348.01	28.7653	2.29118	6.64613	0.529371
348.554	28.2746	1.66442	6.53277	0.38456
349.015	28.8955	1.87562	6.67623	0.433356
349.501	28.834	2.32835	6.662	0.537959
349.758	28.1888	2.06322	6.51293	0.4767