File: data/colloidalCrystals/nanoparticles/vsm/postSynthesis/rawdata/dd144_dry/dd144_dry.xye
#Extracted data using VSM extraction tool v1.1
#Loaded parameter file: extractVSM.dat
#Desired unit of B: T
#Desired unit of M: memu
#Reading column for B: Applied Field
#Reading column for M: Raw Signal Mx
#Estimate noise level: 5e-3 memu
#Loading data from file: dd144_dry-Hys-00.VHD
#Save data to file: dd144_dry.xye
#Extraction performed at: Wed Oct 12 13:39:32 2016
#Unit of B in data: Oe
#Changing unit by multiplying with factor: 0.0001
#Unit of M in data: memu
#Applied image correction factors to M by linear interpolation of following values
#14998.0	1.0
#15247.0	1.000156
#15497.0	1.000302
#15747.0	1.000527
#15997.0	1.000751
#16247.0	1.001191
#16497.0	1.001494
#16746.0	1.001865
#16996.0	1.002237
#17247.0	1.002688
#17496.0	1.003286
#17746.0	1.003738
#17996.0	1.004259
#18245.0	1.005007
#18495.0	1.005686
#18745.0	1.006367
#18995.0	1.007118

#B / T	M / memu	sM / memu	M_raw / memu	sM_raw / memu
-0.0007	-0.2178575	0.005	-0.2178575	0.005
0.0	0.03290911	0.005	0.03290911	0.005
0.001	0.3115678	0.005	0.3115678	0.005
0.0021	0.6089162	0.005	0.6089162	0.005
0.0031	0.8784098	0.005	0.8784098	0.005
0.0041	1.154245	0.005	1.154245	0.005
0.0051	1.425867	0.005	1.425867	0.005
0.0076	2.07421	0.005	2.07421	0.005
0.01	2.692503	0.005	2.692503	0.005
0.0126	3.28532	0.005	3.28532	0.005
0.0151	3.842422	0.005	3.842422	0.005
0.0175	4.36576	0.005	4.36576	0.005
0.02	4.863599	0.005	4.863599	0.005
0.0225	5.332383	0.005	5.332383	0.005
0.025	5.776633	0.005	5.776633	0.005
0.0275	6.194324	0.005	6.194324	0.005
0.03	6.596262	0.005	6.596262	0.005
0.0326	6.975296	0.005	6.975296	0.005
0.035	7.333736	0.005	7.333736	0.005
0.0375	7.675188	0.005	7.675188	0.005
0.04	8.004104	0.005	8.004104	0.005
0.0425	8.317126	0.005	8.317126	0.005
0.0451	8.618108	0.005	8.618108	0.005
0.0475	8.90348	0.005	8.90348	0.005
0.05	9.178236	0.005	9.178236	0.005
0.0525	9.440163	0.005	9.440163	0.005
0.055	9.694089	0.005	9.694089	0.005
0.0575	9.937778	0.005	9.937778	0.005
0.06	10.17364	0.005	10.17364	0.005
0.0625	10.39951	0.005	10.39951	0.005
0.065	10.61613	0.005	10.61613	0.005
0.0675	10.82672	0.005	10.82672	0.005
0.07	11.0352	0.005	11.0352	0.005
0.0725	11.23024	0.005	11.23024	0.005
0.075	11.42309	0.005	11.42309	0.005
0.0775	11.60777	0.005	11.60777	0.005
0.08	11.77965	0.005	11.77965	0.005
0.0825	11.95941	0.005	11.95941	0.005
0.085	12.13076	0.005	12.13076	0.005
0.0875	12.29264	0.005	12.29264	0.005
0.09	12.45764	0.005	12.45764	0.005
0.0925	12.61074	0.005	12.61074	0.005
0.095	12.76278	0.005	12.76278	0.005
0.0975	12.90988	0.005	12.90988	0.005
0.1	13.05208	0.005	13.05208	0.005
0.15	15.32632	0.005	15.32632	0.005
0.2	16.89722	0.005	16.89722	0.005
0.25	18.07871	0.005	18.07871	0.005
0.3	19.01515	0.005	19.01515	0.005
0.35	19.79007	0.005	19.79007	0.005
0.4001	20.44173	0.005	20.44173	0.005
0.45	21.00283	0.005	21.00283	0.005
0.5	21.50106	0.005	21.50106	0.005
0.5501	21.94205	0.005	21.94205	0.005
0.6001	22.33531	0.005	22.33531	0.005
0.65	22.69239	0.005	22.69239	0.005
0.7	23.01682	0.005	23.01682	0.005
0.7501	23.30859	0.005	23.30859	0.005
0.8002	23.57895	0.005	23.57895	0.005
0.8501	23.83421	0.005	23.83421	0.005
0.9001	24.06806	0.005	24.06806	0.005
0.9501	24.28576	0.005	24.28576	0.005
1.0002	24.48729	0.005	24.48729	0.005
1.1001	24.85913	0.005	24.85913	0.005
1.2001	25.18111	0.005	25.18111	0.005
1.3001	25.47217	0.005	25.47217	0.005
1.4001	25.72287	0.005	25.72287	0.005
1.5001	25.9487	0.005	25.94864	0.005
1.6001	26.144	0.005	26.12419	0.005
1.7001	26.343	0.005	26.28396	0.005
1.8001	26.507	0.005	26.39422	0.005
1.9	26.6761	0.005	26.48759	0.005
1.8006	26.512	0.005	26.39877	0.005
1.7005	26.3449	0.005	26.28572	0.005
1.6007	26.1636	0.005	26.14351	0.005
1.5005	25.9516	0.005	25.95144	0.005
1.4005	25.73869	0.005	25.73869	0.005
1.3004	25.48869	0.005	25.48869	0.005
1.2004	25.19691	0.005	25.19691	0.005
1.1003	24.87915	0.005	24.87915	0.005
1.0004	24.51469	0.005	24.51469	0.005
0.9503	24.30683	0.005	24.30683	0.005
0.9003	24.09615	0.005	24.09615	0.005
0.8502	23.86372	0.005	23.86372	0.005
0.8002	23.61373	0.005	23.61373	0.005
0.7503	23.34512	0.005	23.34512	0.005
0.7002	23.04632	0.005	23.04632	0.005
0.6502	22.73137	0.005	22.73137	0.005
0.6002	22.3771	0.005	22.3771	0.005
0.5502	21.9849	0.005	21.9849	0.005
0.5002	21.55196	0.005	21.55196	0.005
0.4502	21.06252	0.005	21.06252	0.005
0.4002	20.49934	0.005	20.49934	0.005
0.3502	19.84941	0.005	19.84941	0.005
0.3002	19.08187	0.005	19.08187	0.005
0.2502	18.14087	0.005	18.14087	0.005
0.2002	16.95796	0.005	16.95796	0.005
0.1502	15.38953	0.005	15.38953	0.005
0.1001	13.11705	0.005	13.11705	0.005
0.0975	12.96889	0.005	12.96889	0.005
0.095	12.81965	0.005	12.81965	0.005
0.0926	12.66938	0.005	12.66938	0.005
0.09	12.51384	0.005	12.51384	0.005
0.0875	12.35267	0.005	12.35267	0.005
0.085	12.1915	0.005	12.1915	0.005
0.0825	12.02088	0.005	12.02088	0.005
0.08	11.84776	0.005	11.84776	0.005
0.0775	11.67044	0.005	11.67044	0.005
0.075	11.48084	0.005	11.48084	0.005
0.0725	11.29194	0.005	11.29194	0.005
0.07	11.09566	0.005	11.09566	0.005
0.0675	10.88958	0.005	10.88958	0.005
0.065	10.67784	0.005	10.67784	0.005
0.0625	10.46191	0.005	10.46191	0.005
0.0601	10.23718	0.005	10.23718	0.005
0.0576	10.00267	0.005	10.00267	0.005
0.0551	9.757556	0.005	9.757556	0.005
0.0526	9.506174	0.005	9.506174	0.005
0.0501	9.240384	0.005	9.240384	0.005
0.0476	8.968608	0.005	8.968608	0.005
0.0451	8.684556	0.005	8.684556	0.005
0.0426	8.386472	0.005	8.386472	0.005
0.0401	8.076772	0.005	8.076772	0.005
0.0376	7.74848	0.005	7.74848	0.005
0.0351	7.407206	0.005	7.407206	0.005
0.0326	7.046221	0.005	7.046221	0.005
0.0301	6.668777	0.005	6.668777	0.005
0.0276	6.275887	0.005	6.275887	0.005
0.0251	5.855238	0.005	5.855238	0.005
0.0226	5.407916	0.005	5.407916	0.005
0.0201	4.938124	0.005	4.938124	0.005
0.0176	4.437781	0.005	4.437781	0.005
0.0151	3.910405	0.005	3.910405	0.005
0.0126	3.351067	0.005	3.351067	0.005
0.0101	2.753116	0.005	2.753116	0.005
0.0076	2.122859	0.005	2.122859	0.005
0.0051	1.458891	0.005	1.458891	0.005
0.0041	1.185727	0.005	1.185727	0.005
0.0031	0.9058854	0.005	0.9058854	0.005
0.0021	0.6232355	0.005	0.6232355	0.005
0.0011	0.3384778	0.005	0.3384778	0.005
0.0	0.05688125	0.005	0.05688125	0.005
-0.0007	-0.2243646	0.005	-0.2243646	0.005
-0.0017	-0.5070151	0.005	-0.5070151	0.005
-0.0027	-0.7868546	0.005	-0.7868546	0.005
-0.0037	-1.065291	0.005	-1.065291	0.005
-0.0047	-1.341622	0.005	-1.341622	0.005
-0.0072	-2.010154	0.005	-2.010154	0.005
-0.0097	-2.642512	0.005	-2.642512	0.005
-0.0122	-3.247484	0.005	-3.247484	0.005
-0.0147	-3.813147	0.005	-3.813147	0.005
-0.0172	-4.350003	0.005	-4.350003	0.005
-0.0197	-4.848941	0.005	-4.848941	0.005
-0.0222	-5.322595	0.005	-5.322595	0.005
-0.0247	-5.77378	0.005	-5.77378	0.005
-0.0272	-6.198271	0.005	-6.198271	0.005
-0.0297	-6.598206	0.005	-6.598206	0.005
-0.0322	-6.977758	0.005	-6.977758	0.005
-0.0347	-7.342938	0.005	-7.342938	0.005
-0.0372	-7.687723	0.005	-7.687723	0.005
-0.0397	-8.015331	0.005	-8.015331	0.005
-0.0422	-8.330993	0.005	-8.330993	0.005
-0.0447	-8.634013	0.005	-8.634013	0.005
-0.0472	-8.919833	0.005	-8.919833	0.005
-0.0497	-9.195425	0.005	-9.195425	0.005
-0.0522	-9.46296	0.005	-9.46296	0.005
-0.0547	-9.71473	0.005	-9.71473	0.005
-0.0572	-9.955957	0.005	-9.955957	0.005
-0.0597	-10.19436	0.005	-10.19436	0.005
-0.0623	-10.42189	0.005	-10.42189	0.005
-0.0648	-10.64447	0.005	-10.64447	0.005
-0.0673	-10.85517	0.005	-10.85517	0.005
-0.0698	-11.05812	0.005	-11.05812	0.005
-0.0723	-11.25716	0.005	-11.25716	0.005
-0.0748	-11.44962	0.005	-11.44962	0.005
-0.0773	-11.6357	0.005	-11.6357	0.005
-0.0798	-11.81547	0.005	-11.81547	0.005
-0.0823	-11.99245	0.005	-11.99245	0.005
-0.0848	-12.16063	0.005	-12.16063	0.005
-0.0873	-12.32669	0.005	-12.32669	0.005
-0.0898	-12.48715	0.005	-12.48715	0.005
-0.0923	-12.64479	0.005	-12.64479	0.005
-0.0948	-12.79506	0.005	-12.79506	0.005
-0.0973	-12.94254	0.005	-12.94254	0.005
-0.0998	-13.08789	0.005	-13.08789	0.005
-0.1497	-15.36567	0.005	-15.36567	0.005
-0.1996	-16.94498	0.005	-16.94498	0.005
-0.2497	-18.12578	0.005	-18.12578	0.005
-0.2997	-19.0622	0.005	-19.0622	0.005
-0.3497	-19.82938	0.005	-19.82938	0.005
-0.3997	-20.48176	0.005	-20.48176	0.005
-0.4498	-21.03934	0.005	-21.03934	0.005
-0.4998	-21.53651	0.005	-21.53651	0.005
-0.5497	-21.9712	0.005	-21.9712	0.005
-0.5998	-22.36375	0.005	-22.36375	0.005
-0.6498	-22.7275	0.005	-22.7275	0.005
-0.6998	-23.04737	0.005	-23.04737	0.005
-0.7498	-23.34266	0.005	-23.34266	0.005
-0.7997	-23.61441	0.005	-23.61441	0.005
-0.8498	-23.87074	0.005	-23.87074	0.005
-0.8998	-24.0965	0.005	-24.0965	0.005
-0.9498	-24.30963	0.005	-24.30963	0.005
-0.9998	-24.51573	0.005	-24.51573	0.005
-1.0998	-24.88616	0.005	-24.88616	0.005
-1.1998	-25.20532	0.005	-25.20532	0.005
-1.2999	-25.48903	0.005	-25.48903	0.005
-1.3998	-25.73936	0.005	-25.73936	0.005
-1.4998	-25.96234	0.005	-25.96234	0.005
-1.5997	-26.1631	0.005	-26.14351	0.005
-1.6999	-26.3549	0.005	-26.2959	0.005
-1.7998	-26.5311	0.005	-26.41845	0.005
-1.8998	-26.6935	0.005	-26.50482	0.005
-1.8002	-26.529	0.005	-26.41597	0.005
-1.7002	-26.3582	0.005	-26.29905	0.005
-1.6001	-26.1679	0.005	-26.14807	0.005
-1.5001	-25.9627	0.005	-25.96269	0.005
-1.4001	-25.75694	0.005	-25.75694	0.005
-1.3001	-25.50308	0.005	-25.50308	0.005
-1.2001	-25.22357	0.005	-25.22357	0.005
-1.1	-24.89599	0.005	-24.89599	0.005
-1.0	-24.53506	0.005	-24.53506	0.005
-0.95	-24.33841	0.005	-24.33841	0.005
-0.9	-24.11969	0.005	-24.11969	0.005
-0.8499	-23.88513	0.005	-23.88513	0.005
-0.7999	-23.63726	0.005	-23.63726	0.005
-0.7499	-23.36547	0.005	-23.36547	0.005
-0.7	-23.07298	0.005	-23.07298	0.005
-0.6499	-22.7563	0.005	-22.7563	0.005
-0.5999	-22.40905	0.005	-22.40905	0.005
-0.5499	-22.01896	0.005	-22.01896	0.005
-0.4999	-21.58392	0.005	-21.58392	0.005
-0.4499	-21.09307	0.005	-21.09307	0.005
-0.3998	-20.53479	0.005	-20.53479	0.005
-0.3499	-19.88417	0.005	-19.88417	0.005
-0.2999	-19.11557	0.005	-19.11557	0.005
-0.2499	-18.17494	0.005	-18.17494	0.005
-0.1998	-16.99342	0.005	-16.99342	0.005
-0.1499	-15.41831	0.005	-15.41831	0.005
-0.0999	-13.13814	0.005	-13.13814	0.005
-0.0973	-12.9875	0.005	-12.9875	0.005
-0.0948	-12.83791	0.005	-12.83791	0.005
-0.0923	-12.68693	0.005	-12.68693	0.005
-0.0898	-12.53033	0.005	-12.53033	0.005
-0.0873	-12.36951	0.005	-12.36951	0.005
-0.085	-12.21783	0.005	-12.21783	0.005
-0.0823	-12.02997	0.005	-12.02997	0.005
-0.0798	-11.85513	0.005	-11.85513	0.005
-0.0773	-11.67712	0.005	-11.67712	0.005
-0.075	-11.50613	0.005	-11.50613	0.005
-0.0723	-11.29861	0.005	-11.29861	0.005
-0.0698	-11.09705	0.005	-11.09705	0.005
-0.0673	-10.89169	0.005	-10.89169	0.005
-0.065	-10.69854	0.005	-10.69854	0.005
-0.0625	-10.48123	0.005	-10.48123	0.005
-0.06	-10.25335	0.005	-10.25335	0.005
-0.0573	-9.998429	0.005	-9.998429	0.005
-0.055	-9.773709	0.005	-9.773709	0.005
-0.0523	-9.498434	0.005	-9.498434	0.005
-0.0499	-9.253367	0.005	-9.253367	0.005
-0.0475	-8.980213	0.005	-8.980213	0.005
-0.045	-8.694747	0.005	-8.694747	0.005
-0.0425	-8.393847	0.005	-8.393847	0.005
-0.04	-8.077467	0.005	-8.077467	0.005
-0.0372	-7.723197	0.005	-7.723197	0.005
-0.0349	-7.405097	0.005	-7.405097	0.005
-0.0324	-7.0441	0.005	-7.0441	0.005
-0.0299	-6.662085	0.005	-6.662085	0.005
-0.0275	-6.262869	0.005	-6.262869	0.005
-0.0249	-5.837333	0.005	-5.837333	0.005
-0.0224	-5.389659	0.005	-5.389659	0.005
-0.0199	-4.918112	0.005	-4.918112	0.005
-0.0174	-4.415312	0.005	-4.415312	0.005
-0.0149	-3.87986	0.005	-3.87986	0.005
-0.0124	-3.312091	0.005	-3.312091	0.005
-0.0099	-2.714842	0.005	-2.714842	0.005
-0.0074	-2.076515	0.005	-2.076515	0.005
-0.0049	-1.405526	0.005	-1.405526	0.005
-0.0037	-1.075824	0.005	-1.075824	0.005
-0.0028	-0.7942274	0.005	-0.7942274	0.005
-0.0017	-0.512633	0.005	-0.512633	0.005
-0.0007	-0.2299825	0.005	-0.2299825	0.005
0.0	0.02668498	0.005	0.02668498	0.005
0.001	0.3082818	0.005	0.3082818	0.005
0.0021	0.6263953	0.005	0.6263953	0.005
0.003	0.8777924	0.005	0.8777924	0.005
0.0041	1.189238	0.005	1.189238	0.005
0.0051	1.458891	0.005	1.458891	0.005
0.0076	2.124263	0.005	2.124263	0.005
0.0101	2.753818	0.005	2.753818	0.005
0.0125	3.353174	0.005	3.353174	0.005
0.0151	3.921997	0.005	3.921997	0.005
0.0175	4.447966	0.005	4.447966	0.005
0.02	4.950763	0.005	4.950763	0.005
0.0226	5.42231	0.005	5.42231	0.005
0.0251	5.868228	0.005	5.868228	0.005
0.0276	6.292028	0.005	6.292028	0.005
0.0301	6.689123	0.005	6.689123	0.005
0.0325	7.069041	0.005	7.069041	0.005
0.0351	7.431063	0.005	7.431063	0.005
0.0376	7.774824	0.005	7.774824	0.005
0.04	8.101018	0.005	8.101018	0.005
0.0426	8.412097	0.005	8.412097	0.005
0.0451	8.715459	0.005	8.715459	0.005
0.0476	9.001243	0.005	9.001243	0.005
0.0501	9.274809	0.005	9.274809	0.005
0.0525	9.537772	0.005	9.537772	0.005
0.055	9.790568	0.005	9.790568	0.005
0.0575	10.0346	0.005	10.0346	0.005
0.06	10.27023	0.005	10.27023	0.005
0.0625	10.49349	0.005	10.49349	0.005
0.065	10.71542	0.005	10.71542	0.005
0.0675	10.92151	0.005	10.92151	0.005
0.07	11.12904	0.005	11.12904	0.005
0.0725	11.32706	0.005	11.32706	0.005
0.075	11.52019	0.005	11.52019	0.005
0.0775	11.70345	0.005	11.70345	0.005
0.08	11.88253	0.005	11.88253	0.005
0.0825	12.05666	0.005	12.05666	0.005
0.085	12.22697	0.005	12.22697	0.005
0.0875	12.39096	0.005	12.39096	0.005
0.09	12.55035	0.005	12.55035	0.005
0.0925	12.70519	0.005	12.70519	0.005
0.095	12.85756	0.005	12.85756	0.005
0.0975	13.0068	0.005	13.0068	0.005
0.1	13.15039	0.005	13.15039	0.005
0.15	15.42182	0.005	15.42182	0.005
0.2001	16.99412	0.005	16.99412	0.005
0.25	18.17037	0.005	18.17037	0.005
0.3	19.10435	0.005	19.10435	0.005
0.3501	19.86906	0.005	19.86906	0.005
0.4001	20.51864	0.005	20.51864	0.005
0.45	21.0804	0.005	21.0804	0.005
0.5	21.56847	0.005	21.56847	0.005
0.5501	22.00702	0.005	22.00702	0.005
0.6001	22.40835	0.005	22.40835	0.005
0.6501	22.76262	0.005	22.76262	0.005
0.7	23.08282	0.005	23.08282	0.005
0.7501	23.37531	0.005	23.37531	0.005
0.8002	23.64533	0.005	23.64533	0.005
0.8501	23.89144	0.005	23.89144	0.005
0.9001	24.12705	0.005	24.12705	0.005
0.9502	24.33982	0.005	24.33982	0.005
1.0002	24.5505	0.005	24.5505	0.005
1.1001	24.91811	0.005	24.91811	0.005
1.2001	25.23693	0.005	25.23693	0.005
1.3001	25.52343	0.005	25.52343	0.005
1.4001	25.76747	0.005	25.76747	0.005
1.5001	25.9926	0.005	25.99253	0.005
1.6001	26.1935	0.005	26.1737	0.005
1.7001	26.3849	0.005	26.32574	0.005
1.8001	26.5613	0.005	26.44827	0.005
1.9001	26.7129	0.005	26.52412	0.005