File: data/looselyPackedNP/nanoparticles/vsm/ios-7/backup/kwi338_BGLinSub_rescale.xye
#Extracted data using VSM extraction tool v1.1
#Loaded parameter file: extractVSM.dat
#Desired unit of B: T
#Desired unit of M: memu
#Reading column for B: Applied Field
#Reading column for M: Raw Signal Mx
#Estimate noise level: 5e-3 memu
#Loading data from file: kwi338-Hys-00.VHD
#Save data to file: kwi338.xye
#Extraction performed at: Fri Jul 13 11:41:19 2018
#Unit of B in data: Oe
#Changing unit by multiplying with factor: 0.0001
#Unit of M in data: memu
#Applied image correction factors to M by linear interpolation of following values
#14999.0	1.0
#15247.0	1.000145
#15498.0	1.000209
#15748.0	1.000417
#15998.0	1.000699
#16248.0	1.001107
#16497.0	1.001462
#16747.0	1.001735
#16997.0	1.002153
#17247.0	1.002709
#17497.0	1.003192
#17747.0	1.003685
#17996.0	1.004307
#18246.0	1.004801
#18495.0	1.005497
#18746.0	1.006341
#18995.0	1.007251

#Substracted file: kwi338.xye
#Using Slope: -1.43
#Rescaled file: kwi338_BGLinSub.xye
#Rescale Factor: 0.0098305
#Sigma Scalefactor: 0.0
#B / T	M_scaled / kAm-1	sM_scaled / kAm-1	M_prescaling / memu	sM_prescaling / memu	M_raw / memu	sM_raw / memu
-0.0009	-0.52676	-0.508621	-0.005178313	0.005	-0.003891313	0.005
0.0	-0.134823	-0.508621	-0.001325377	0.005	-0.001325377	0.005
0.0009	0.226672	0.508621	0.0022283	0.005	0.0009412998	0.005
0.0019	1.09327	0.508621	0.0107474	0.005	0.008030376	0.005
0.0029	1.33084	0.508621	0.0130828	0.005	0.008935817	0.005
0.0039	1.40593	0.508621	0.013821	0.005	0.008244018	0.005
0.0049	2.52988	0.508621	0.02487002	0.005	0.01786302	0.005
0.0074	3.61996	0.508621	0.03558606	0.005	0.02500406	0.005
0.0099	5.35132	0.508621	0.0526062	0.005	0.03844916	0.005
0.0124	6.27029	0.508621	0.06164015	0.005	0.04390815	0.005
0.0149	7.83594	0.508621	0.07703123	0.005	0.05572423	0.005
0.0174	8.89078	0.508621	0.08740081	0.005	0.06251881	0.005
0.0199	10.2134	0.508621	0.100403	0.005	0.07194573	0.005
0.0224	11.4733	0.508621	0.112789	0.005	0.08075669	0.005
0.0249	12.89	0.508621	0.1267152	0.005	0.0911082	0.005
0.0274	14.0425	0.508621	0.138045	0.005	0.09886309	0.005
0.0299	15.3684	0.508621	0.1510794	0.005	0.1083224	0.005
0.0324	16.7471	0.508621	0.1646324	0.005	0.1183004	0.005
0.0349	17.8259	0.508621	0.1752378	0.005	0.1253308	0.005
0.0374	19.0254	0.508621	0.1870293	0.005	0.1335473	0.005
0.0399	20.4903	0.508621	0.2014304	0.005	0.1443734	0.005
0.0424	21.3927	0.508621	0.2103012	0.005	0.1496692	0.005
0.0449	22.7881	0.508621	0.224019	0.005	0.1598118	0.005
0.0474	23.9964	0.508621	0.235897	0.005	0.168115	0.005
0.0499	25.3459	0.508621	0.249163	0.005	0.177806	0.005
0.0523	26.5293	0.508621	0.2607963	0.005	0.1860073	0.005
0.0549	28.0511	0.508621	0.275756	0.005	0.1972493	0.005
0.0574	29.0357	0.508621	0.2854356	0.005	0.2033536	0.005
0.0599	30.2464	0.508621	0.2973376	0.005	0.2116806	0.005
0.0623	31.3159	0.508621	0.307851	0.005	0.218762	0.005
0.0649	32.6921	0.508621	0.3213801	0.005	0.2285731	0.005
0.0673	33.786	0.508621	0.332133	0.005	0.2358941	0.005
0.0698	34.8632	0.508621	0.3427232	0.005	0.2429092	0.005
0.0723	35.9444	0.508621	0.3533516	0.005	0.2499626	0.005
0.0748	37.2793	0.508621	0.3664746	0.005	0.2595106	0.005
0.0773	38.0003	0.508621	0.3735624	0.005	0.2630234	0.005
0.0798	39.9498	0.508621	0.392726	0.005	0.2786122	0.005
0.0824	40.6728	0.508621	0.3998343	0.005	0.2820023	0.005
0.0849	41.8949	0.508621	0.4118478	0.005	0.2904408	0.005
0.0873	42.4692	0.508621	0.4174941	0.005	0.2926551	0.005
0.0899	44.0338	0.508621	0.432875	0.005	0.3043179	0.005
0.0923	44.2973	0.508621	0.4354652	0.005	0.3034762	0.005
0.0948	46.2361	0.508621	0.4545241	0.005	0.3189601	0.005
0.0973	47.1919	0.508621	0.46392	0.005	0.3247815	0.005
0.0999	47.88	0.508621	0.4706842	0.005	0.3278272	0.005
0.1499	68.1649	0.508621	0.670095	0.005	0.455738	0.005
0.1998	85.7321	0.508621	0.8427897	0.005	0.5570757	0.005
0.2498	98.6863	0.508621	0.970136	0.005	0.6129216	0.005
0.2998	109.777	0.508621	1.07916	0.005	0.6504509	0.005
0.3498	119.807	0.508621	1.17777	0.005	0.6775521	0.005
0.3998	126.439	0.508621	1.24296	0.005	0.6712446	0.005
0.4498	132.389	0.508621	1.30145	0.005	0.6582363	0.005
0.4998	137.363	0.508621	1.35035	0.005	0.6356348	0.005
0.5498	141.549	0.508621	1.3915	0.005	0.6052884	0.005
0.5998	145.011	0.508621	1.42553	0.005	0.5678205	0.005
0.6498	148.418	0.508621	1.45903	0.005	0.5298119	0.005
0.6998	150.96	0.508621	1.48402	0.005	0.4833033	0.005
0.7499	154.568	0.508621	1.51948	0.005	0.4471208	0.005
0.7999	157.042	0.508621	1.5438	0.005	0.3999475	0.005
0.8498	159.184	0.508621	1.56486	0.005	0.3496428	0.005
0.8998	158.889	0.508621	1.56196	0.005	0.2752475	0.005
0.9498	162.377	0.508621	1.59625	0.005	0.2380344	0.005
0.9999	163.631	0.508621	1.60858	0.005	0.1787193	0.005
1.0998	166.138	0.508621	1.63322	0.005	0.06050844	0.005
1.1998	169.339	0.508621	1.66468	0.005	-0.05102921	0.005
1.2997	169.888	0.508621	1.67009	0.005	-0.1884842	0.005
1.3998	172.634	0.508621	1.69708	0.005	-0.3046341	0.005
1.4997	173.324	0.508621	1.70386	0.005	-0.4407128	0.005
1.5998	163.091	0.508621	1.60327	0.005	-0.6839691	0.005
1.6997	178.553	0.508621	1.75526	0.005	-0.6738577	0.005
1.7997	179.443	0.508621	1.76402	0.005	-0.806079	0.005
1.8996	182.61	0.508621	1.79515	0.005	-0.9146482	0.005
1.8	179.991	0.508621	1.7694	0.005	-0.8011389	0.005
1.7	179.493	0.508621	1.76451	0.005	-0.6650522	0.005
1.6002	164.276	0.508621	1.61491	0.005	-0.672899	0.005
1.5	174.908	0.508621	1.71943	0.005	-0.4255701	0.005
1.4	172.189	0.508621	1.6927	0.005	-0.3092972	0.005
1.3	170.622	0.508621	1.6773	0.005	-0.1816987	0.005
1.2	167.984	0.508621	1.65137	0.005	-0.06463072	0.005
1.1	164.905	0.508621	1.6211	0.005	0.04810071	0.005
1.0	162.792	0.508621	1.60033	0.005	0.1703317	0.005
0.95	161.617	0.508621	1.58878	0.005	0.2302794	0.005
0.9	159.078	0.508621	1.56382	0.005	0.2768188	0.005
0.85	157.079	0.508621	1.544164	0.005	0.328664	0.005
0.8	153.622	0.508621	1.51018	0.005	0.3661831	0.005
0.75	152.004	0.508621	1.49427	0.005	0.4217744	0.005
0.6999	149.32	0.508621	1.4679	0.005	0.4670385	0.005
0.6499	147.175	0.508621	1.4468	0.005	0.5174449	0.005
0.6	143.794	0.508621	1.41357	0.005	0.555566	0.005
0.55	140.045	0.508621	1.37672	0.005	0.5902171	0.005
0.5	135.267	0.508621	1.32974	0.005	0.6147381	0.005
0.45	131.216	0.508621	1.28992	0.005	0.646419	0.005
0.4	124.816	0.508621	1.227	0.005	0.6550021	0.005
0.35	115.4	0.508621	1.13444	0.005	0.6339399	0.005
0.3	109.104	0.508621	1.072543	0.005	0.643543	0.005
0.25	97.3526	0.508621	0.957026	0.005	0.5995255	0.005
0.2001	83.8223	0.508621	0.8240158	0.005	0.5378728	0.005
0.15	67.9142	0.508621	0.6676307	0.005	0.4531307	0.005
0.1	47.4181	0.508621	0.4661438	0.005	0.3231438	0.005
0.0974	46.6714	0.508621	0.4588034	0.005	0.3195214	0.005
0.0949	45.687	0.508621	0.449127	0.005	0.3134196	0.005
0.0924	44.0373	0.508621	0.432909	0.005	0.3007771	0.005
0.0899	43.4941	0.508621	0.427569	0.005	0.299012	0.005
0.0874	42.4973	0.508621	0.41777	0.005	0.2927876	0.005
0.0849	40.5995	0.508621	0.3991135	0.005	0.2777065	0.005
0.0824	40.2483	0.508621	0.395661	0.005	0.277829	0.005
0.0799	38.1564	0.508621	0.3750967	0.005	0.2608397	0.005
0.0774	37.745	0.508621	0.3710524	0.005	0.2603704	0.005
0.0749	36.7606	0.508621	0.3613755	0.005	0.2542685	0.005
0.0724	35.1753	0.508621	0.3457907	0.005	0.2422587	0.005
0.0699	34.1369	0.508621	0.3355832	0.005	0.2356262	0.005
0.0673	32.9315	0.508621	0.3237329	0.005	0.2274939	0.005
0.0649	31.9388	0.508621	0.3139747	0.005	0.2211677	0.005
0.0624	31.1049	0.508621	0.3057773	0.005	0.2165453	0.005
0.0599	29.7396	0.508621	0.2923549	0.005	0.2066979	0.005
0.0574	28.559	0.508621	0.2807495	0.005	0.1986675	0.005
0.0549	27.3255	0.508621	0.268624	0.005	0.1901168	0.005
0.0524	26.1502	0.508621	0.2570695	0.005	0.1821375	0.005
0.0499	24.8928	0.508621	0.2447091	0.005	0.1733521	0.005
0.0474	23.8503	0.508621	0.234461	0.005	0.1666789	0.005
0.0449	22.565	0.508621	0.221825	0.005	0.157618	0.005
0.0424	21.5889	0.508621	0.2122297	0.005	0.1515977	0.005
0.0399	20.043	0.508621	0.1970326	0.005	0.1399756	0.005
0.0374	18.8832	0.508621	0.1856313	0.005	0.1321493	0.005
0.0349	17.6881	0.508621	0.1738831	0.005	0.1239761	0.005
0.0324	16.6425	0.508621	0.163604	0.005	0.1172723	0.005
0.0299	13.8406	0.508621	0.13606	0.005	0.09330338	0.005
0.0274	14.2658	0.508621	0.1402403	0.005	0.1010583	0.005
0.0249	12.6825	0.508621	0.124676	0.005	0.08906881	0.005
0.0224	11.4511	0.508621	0.11257	0.005	0.08053844	0.005
0.0199	10.1211	0.508621	0.0994958	0.005	0.07103878	0.005
0.0174	9.24471	0.508621	0.09088017	0.005	0.06599817	0.005
0.0149	7.82023	0.508621	0.07687685	0.005	0.05556985	0.005
0.0124	6.56183	0.508621	0.06450613	0.005	0.04677413	0.005
0.0099	5.31071	0.508621	0.05220694	0.005	0.03804994	0.005
0.0074	4.071	0.508621	0.04001998	0.005	0.02943798	0.005
0.0049	2.89667	0.508621	0.02847577	0.005	0.02146877	0.005
0.004	2.57269	0.508621	0.02529086	0.005	0.01957086	0.005
0.003	1.69442	0.508621	0.01665699	0.005	0.01236699	0.005
0.0019	1.22613	0.508621	0.0120535	0.005	0.009336462	0.005
0.001	0.974806	0.508621	0.009582833	0.005	0.008152833	0.005
0.0	0.270911	0.508621	0.00266319	0.005	0.00266319	0.005
-0.0009	-0.229526	-0.508621	-0.00225636	0.005	-0.0009693606	0.005
-0.0019	-0.821319	-0.508621	-0.008073984	0.005	-0.005356984	0.005
-0.0029	-1.20656	-0.508621	-0.0118611	0.005	-0.007714077	0.005
-0.0038	-1.70596	-0.508621	-0.0167704	0.005	-0.0113364	0.005
-0.0049	-2.20227	-0.508621	-0.02164946	0.005	-0.01464246	0.005
-0.0074	-3.46793	-0.508621	-0.0340915	0.005	-0.0235095	0.005
-0.0098	-4.63082	-0.508621	-0.04552333	0.005	-0.03150933	0.005
-0.0124	-5.84667	-0.508621	-0.05747575	0.005	-0.03974375	0.005
-0.0149	-7.22443	-0.508621	-0.07101981	0.005	-0.04971281	0.005
-0.0174	-8.00019	-0.508621	-0.07864589	0.005	-0.05376389	0.005
-0.0198	-9.55439	-0.508621	-0.09392443	0.005	-0.06561043	0.005
-0.0224	-10.9934	-0.508621	-0.108071	0.005	-0.07603863	0.005
-0.0249	-12.0214	-0.508621	-0.118176	0.005	-0.08256906	0.005
-0.0274	-13.2829	-0.508621	-0.130577	0.005	-0.09139525	0.005
-0.0299	-14.7551	-0.508621	-0.1450499	0.005	-0.1022929	0.005
-0.0324	-15.8339	-0.508621	-0.1556557	0.005	-0.1093237	0.005
-0.0349	-16.4229	-0.508621	-0.1614449	0.005	-0.1115379	0.005
-0.0374	-18.0954	-0.508621	-0.1778868	0.005	-0.1244048	0.005
-0.0399	-19.4379	-0.508621	-0.1910839	0.005	-0.1340269	0.005
-0.0424	-20.5862	-0.508621	-0.202373	0.005	-0.141741	0.005
-0.0449	-21.7138	-0.508621	-0.213458	0.005	-0.1492509	0.005
-0.0474	-22.9629	-0.508621	-0.2257366	0.005	-0.1579546	0.005
-0.0499	-23.9576	-0.508621	-0.2355155	0.005	-0.1641585	0.005
-0.0524	-25.243	-0.508621	-0.2481514	0.005	-0.1732194	0.005
-0.0549	-25.6897	-0.508621	-0.2525429	0.005	-0.1740359	0.005
-0.0574	-25.8458	-0.508621	-0.254077	0.005	-0.171995	0.005
-0.0599	-29.1635	-0.508621	-0.2866919	0.005	-0.2010349	0.005
-0.0624	-29.4566	-0.508621	-0.289573	0.005	-0.200341	0.005
-0.0649	-31.2724	-0.508621	-0.3074238	0.005	-0.2146168	0.005
-0.0674	-29.9701	-0.508621	-0.294621	0.005	-0.198239	0.005
-0.0699	-33.2889	-0.508621	-0.3272468	0.005	-0.2272898	0.005
-0.0724	-34.483	-0.508621	-0.338985	0.005	-0.235453	0.005
-0.0749	-35.5794	-0.508621	-0.3497636	0.005	-0.2426566	0.005
-0.0774	-36.7849	-0.508621	-0.3616139	0.005	-0.2509319	0.005
-0.0799	-38.0267	-0.508621	-0.373821	0.005	-0.2595644	0.005
-0.0824	-39.0204	-0.508621	-0.3835901	0.005	-0.2657581	0.005
-0.0849	-37.2946	-0.508621	-0.366625	0.005	-0.2452178	0.005
-0.0874	-41.3306	-0.508621	-0.406301	0.005	-0.2813187	0.005
-0.0899	-42.1229	-0.508621	-0.41409	0.005	-0.2855328	0.005
-0.0924	-43.2547	-0.508621	-0.425215	0.005	-0.2930835	0.005
-0.0949	-44.3584	-0.508621	-0.4360657	0.005	-0.3003587	0.005
-0.0974	-45.6449	-0.508621	-0.448712	0.005	-0.30943	0.005
-0.0999	-46.5244	-0.508621	-0.457358	0.005	-0.3145012	0.005
-0.1498	-65.1677	-0.508621	-0.6406313	0.005	-0.4264173	0.005
-0.1998	-81.7432	-0.508621	-0.803577	0.005	-0.5178632	0.005
-0.2498	-95.29	-0.508621	-0.936749	0.005	-0.5795348	0.005
-0.2998	-105.303	-0.508621	-1.03519	0.005	-0.6064717	0.005
-0.3498	-115.484	-0.508621	-1.13527	0.005	-0.6350553	0.005
-0.3997	-122.241	-0.508621	-1.20169	0.005	-0.6301151	0.005
-0.4498	-127.854	-0.508621	-1.25687	0.005	-0.6136545	0.005
-0.4999	-133.448	-0.508621	-1.31186	0.005	-0.5970033	0.005
-0.5498	-136.384	-0.508621	-1.34072	0.005	-0.5545059	0.005
-0.5998	-132.471	-0.508621	-1.30225	0.005	-0.4445392	0.005
-0.6498	-144.87	-0.508621	-1.42415	0.005	-0.4949356	0.005
-0.6998	-146.286	-0.508621	-1.43807	0.005	-0.4373558	0.005
-0.7498	-150.455	-0.508621	-1.47905	0.005	-0.4068353	0.005
-0.7998	-153.012	-0.508621	-1.50418	0.005	-0.3604691	0.005
-0.8498	-154.088	-0.508621	-1.51477	0.005	-0.2995527	0.005
-0.8998	-156.131	-0.508621	-1.53485	0.005	-0.2481362	0.005
-0.9498	-158.003	-0.508621	-1.55325	0.005	-0.1950351	0.005
-0.9997	-159.513	-0.508621	-1.5681	0.005	-0.1385267	0.005
-1.0998	-163.141	-0.508621	-1.60375	0.005	-0.03103995	0.005
-1.1998	-164.938	-0.508621	-1.62142	0.005	0.09429316	0.005
-1.2998	-166.846	-0.508621	-1.64018	0.005	0.2185349	0.005
-1.3997	-168.565	-0.508621	-1.65708	0.005	0.3444899	0.005
-1.4997	-170.667	-0.508621	-1.67775	0.005	0.4668242	0.005
-1.5996	-172.22	-0.508621	-1.69301	0.005	0.5940035	0.005
-1.6997	-173.354	-0.508621	-1.70415	0.005	0.7248565	0.005
-1.7997	-175.378	-0.508621	-1.72405	0.005	0.8458752	0.005
-1.8996	-176.649	-0.508621	-1.73654	0.005	0.9728299	0.005
-1.8	-175.563	-0.508621	-1.72587	0.005	0.844487	0.005
-1.7	-173.648	-0.508621	-1.70704	0.005	0.7223968	0.005
-1.6	-169.641	-0.508621	-1.66765	0.005	0.6199116	0.005
-1.5	-170.647	-0.508621	-1.67754	0.005	0.4674568	0.005
-1.3999	-166.611	-0.508621	-1.63787	0.005	0.3639894	0.005
-1.3	-159.519	-0.508621	-1.56815	0.005	0.290849	0.005
-1.2	-164.815	-0.508621	-1.62022	0.005	0.09578298	0.005
-1.1	-162.405	-0.508621	-1.59652	0.005	-0.02351971	0.005
-0.9999	-159.954	-0.508621	-1.57242	0.005	-0.1425674	0.005
-0.9499	-157.729	-0.508621	-1.55056	0.005	-0.1921983	0.005
-0.8999	-154.657	-0.508621	-1.52036	0.005	-0.2335039	0.005
-0.8499	-154.908	-0.508621	-1.52283	0.005	-0.3074708	0.005
-0.7999	-140.702	-0.508621	-1.38317	0.005	-0.2393098	0.005
-0.7499	-148.639	-0.508621	-1.46119	0.005	-0.3888354	0.005
-0.7	-146.054	-0.508621	-1.43578	0.005	-0.4347845	0.005
-0.65	-143.472	-0.508621	-1.41041	0.005	-0.4809054	0.005
-0.6	-140.778	-0.508621	-1.38391	0.005	-0.525914	0.005
-0.5499	-136.046	-0.508621	-1.3374	0.005	-0.5510461	0.005
-0.5	-132.683	-0.508621	-1.30434	0.005	-0.5893417	0.005
-0.4499	-126.739	-0.508621	-1.24591	0.005	-0.6025537	0.005
-0.3999	-122.02	-0.508621	-1.19951	0.005	-0.6276565	0.005
-0.3499	-107.533	-0.508621	-1.05711	0.005	-0.5567497	0.005
-0.3	-106.18	-0.508621	-1.0438	0.005	-0.6147984	0.005
-0.25	-95.5268	-0.508621	-0.939077	0.005	-0.581577	0.005
-0.1999	-80.5008	-0.508621	-0.7913636	0.005	-0.5055066	0.005
-0.1499	-66.241	-0.508621	-0.6511822	0.005	-0.4368252	0.005
-0.1	-46.4902	-0.508621	-0.457022	0.005	-0.3140218	0.005
-0.0974	-45.8473	-0.508621	-0.4507017	0.005	-0.3114197	0.005
-0.0949	-44.2837	-0.508621	-0.435331	0.005	-0.2996241	0.005
-0.0924	-43.6865	-0.508621	-0.42946	0.005	-0.2973284	0.005
-0.0899	-42.4644	-0.508621	-0.4174467	0.005	-0.2888897	0.005
-0.0874	-41.1946	-0.508621	-0.4049639	0.005	-0.2799819	0.005
-0.0849	-40.0016	-0.508621	-0.3932361	0.005	-0.2718291	0.005
-0.0824	-39.2249	-0.508621	-0.3856001	0.005	-0.2677681	0.005
-0.0799	-38.0318	-0.508621	-0.3738722	0.005	-0.2596152	0.005
-0.0774	-37.0589	-0.508621	-0.3643077	0.005	-0.2536257	0.005
-0.0749	-33.6872	-0.508621	-0.3311623	0.005	-0.2240553	0.005
-0.0724	-34.7404	-0.508621	-0.3415153	0.005	-0.2379833	0.005
-0.0699	-33.7051	-0.508621	-0.3313386	0.005	-0.2313816	0.005
-0.0674	-32.3845	-0.508621	-0.318356	0.005	-0.2219736	0.005
-0.0649	-30.4971	-0.508621	-0.2998015	0.005	-0.2069945	0.005
-0.0624	-29.5116	-0.508621	-0.2901138	0.005	-0.2008818	0.005
-0.0599	-27.8266	-0.508621	-0.2735494	0.005	-0.1878924	0.005
-0.0574	-27.9165	-0.508621	-0.2744335	0.005	-0.1923515	0.005
-0.0549	-26.8927	-0.508621	-0.2643687	0.005	-0.1858617	0.005
-0.0524	-23.4691	-0.508621	-0.2307132	0.005	-0.1557812	0.005
-0.0499	-22.8242	-0.508621	-0.224373	0.005	-0.153016	0.005
-0.0474	-23.4777	-0.508621	-0.2307977	0.005	-0.1630157	0.005
-0.0449	-21.6609	-0.508621	-0.2129375	0.005	-0.1487305	0.005
-0.0424	-21.0564	-0.508621	-0.2069953	0.005	-0.1463633	0.005
-0.0399	-19.825	-0.508621	-0.1948899	0.005	-0.1378329	0.005
-0.0374	-18.5863	-0.508621	-0.1827131	0.005	-0.1292311	0.005
-0.0349	-17.383	-0.508621	-0.1708833	0.005	-0.1209763	0.005
-0.0324	-16.0145	-0.508621	-0.157431	0.005	-0.111099	0.005
-0.0299	-15.0509	-0.508621	-0.147958	0.005	-0.1052012	0.005
-0.0274	-13.2642	-0.508621	-0.130394	0.005	-0.09121173	0.005
-0.0249	-11.6716	-0.508621	-0.114737	0.005	-0.07913035	0.005
-0.0224	-11.2477	-0.508621	-0.11057	0.005	-0.0785385	0.005
-0.0199	-10.1263	-0.508621	-0.0995467	0.005	-0.07108972	0.005
-0.0174	-8.66346	-0.508621	-0.08516619	0.005	-0.06028419	0.005
-0.0149	-7.43204	-0.508621	-0.07306065	0.005	-0.05175365	0.005
-0.0124	-6.67601	-0.508621	-0.0656286	0.005	-0.04789655	0.005
-0.0099	-5.01904	-0.508621	-0.0493397	0.005	-0.03518269	0.005
-0.0074	-4.15404	-0.508621	-0.04083629	0.005	-0.03025429	0.005
-0.0049	-2.8427	-0.508621	-0.02794518	0.005	-0.02093818	0.005
-0.004	-2.06824	-0.508621	-0.02033186	0.005	-0.01461186	0.005
-0.003	-1.93835	-0.508621	-0.0190549	0.005	-0.01476491	0.005
-0.002	-1.48252	-0.508621	-0.01457394	0.005	-0.01171394	0.005
-0.001	-0.716349	-0.508621	-0.00704208	0.005	-0.005612076	0.005
0.0	-0.44529	-0.508621	-0.004377426	0.005	-0.004377426	0.005
0.0009	0.257552	0.508621	0.002531862	0.005	0.001244862	0.005
0.0019	0.68846	0.508621	0.006767906	0.005	0.004050906	0.005
0.0029	1.13805	0.508621	0.0111876	0.005	0.007040617	0.005
0.0039	1.68106	0.508621	0.01652565	0.005	0.01094865	0.005
0.0049	2.35278	0.508621	0.02312901	0.005	0.01612201	0.005
0.0074	3.21778	0.508621	0.0316324	0.005	0.02105039	0.005
0.0099	4.68793	0.508621	0.0460847	0.005	0.0319277	0.005
0.0124	5.8965	0.508621	0.05796555	0.005	0.04023355	0.005
0.0149	6.8954	0.508621	0.06778523	0.005	0.04647823	0.005
0.0174	8.27733	0.508621	0.08137031	0.005	0.05648831	0.005
0.0199	9.5461	0.508621	0.0938429	0.005	0.06538593	0.005
0.0224	10.654	0.508621	0.104734	0.005	0.07270203	0.005
0.0249	12.0266	0.508621	0.118227	0.005	0.08262012	0.005
0.0274	12.4463	0.508621	0.122353	0.005	0.0831711	0.005
0.0299	14.5807	0.508621	0.1433356	0.005	0.1005786	0.005
0.0324	14.3787	0.508621	0.141349	0.005	0.09501747	0.005
0.0349	16.6045	0.508621	0.1632305	0.005	0.1133235	0.005
0.0374	16.4129	0.508621	0.1613466	0.005	0.1078646	0.005
0.0399	18.8867	0.508621	0.1856657	0.005	0.1286087	0.005
0.0424	20.4752	0.508621	0.2012811	0.005	0.1406491	0.005
0.0449	21.5218	0.508621	0.2115703	0.005	0.1473633	0.005
0.0474	22.8664	0.508621	0.224788	0.005	0.1570058	0.005
0.0499	22.2792	0.508621	0.219016	0.005	0.147659	0.005
0.0524	23.1432	0.508621	0.2275093	0.005	0.1525773	0.005
0.0549	26.3799	0.508621	0.2593282	0.005	0.1808212	0.005
0.0574	24.9365	0.508621	0.245138	0.005	0.1630564	0.005
0.0599	25.9458	0.508621	0.2550602	0.005	0.1694032	0.005
0.0624	27.0827	0.508621	0.266237	0.005	0.177005	0.005
0.0648	30.9444	0.508621	0.3041992	0.005	0.2115352	0.005
0.0673	31.8426	0.508621	0.3130292	0.005	0.2167902	0.005
0.0698	33.0689	0.508621	0.3250835	0.005	0.2252695	0.005
0.0723	31.6773	0.508621	0.3114036	0.005	0.2080146	0.005
0.0748	35.0469	0.508621	0.3445289	0.005	0.2375649	0.005
0.0774	36.1943	0.508621	0.355808	0.005	0.245126	0.005
0.0798	37.1288	0.508621	0.3649947	0.005	0.2508807	0.005
0.0823	35.8639	0.508621	0.3525602	0.005	0.2348712	0.005
0.0849	39.6518	0.508621	0.389798	0.005	0.2683906	0.005
0.0873	38.0973	0.508621	0.3745159	0.005	0.2496769	0.005
0.0899	41.7109	0.508621	0.410039	0.005	0.281482	0.005
0.0924	41.0283	0.508621	0.4033285	0.005	0.2711965	0.005
0.0949	43.8613	0.508621	0.4311783	0.005	0.2954713	0.005
0.0973	44.9245	0.508621	0.4416304	0.005	0.3024914	0.005
0.0999	45.6369	0.508621	0.448634	0.005	0.3057771	0.005
0.1499	64.085	0.508621	0.629988	0.005	0.415631	0.005
0.1999	74.3083	0.508621	0.730488	0.005	0.444631	0.005
0.2498	90.1116	0.508621	0.885842	0.005	0.5286281	0.005
0.2998	100.765	0.508621	0.990575	0.005	0.5618608	0.005
0.3498	113.771	0.508621	1.11843	0.005	0.6182156	0.005
0.3999	119.689	0.508621	1.1766	0.005	0.6047472	0.005
0.4498	126.367	0.508621	1.24225	0.005	0.5990335	0.005
0.4998	130.372	0.508621	1.28163	0.005	0.5669115	0.005
0.5499	124.114	0.508621	1.2201	0.005	0.4337436	0.005
0.5999	136.506	0.508621	1.34193	0.005	0.4840685	0.005
0.6498	141.041	0.508621	1.386508	0.005	0.457294	0.005
0.6998	135.472	0.508621	1.33176	0.005	0.3310415	0.005
0.7499	141.602	0.508621	1.39202	0.005	0.3196643	0.005
0.7999	150.749	0.508621	1.48194	0.005	0.338082	0.005
0.8498	151.586	0.508621	1.49017	0.005	0.2749517	0.005
0.8998	153.585	0.508621	1.50982	0.005	0.2231063	0.005
0.9498	151.708	0.508621	1.49136	0.005	0.1331494	0.005
0.9999	152.918	0.508621	1.50326	0.005	0.07340608	0.005
1.0998	149.516	0.508621	1.46982	0.005	-0.1028952	0.005
1.1998	161.677	0.508621	1.58937	0.005	-0.1263435	0.005
1.2997	162.994	0.508621	1.60231	0.005	-0.2562584	0.005
1.3998	165.611	0.508621	1.62804	0.005	-0.3736726	0.005
1.4997	165.63	0.508621	1.62823	0.005	-0.5163431	0.005
1.5998	161.268	0.508621	1.58535	0.005	-0.7018781	0.005
1.6997	170.461	0.508621	1.67572	0.005	-0.753233	0.005
1.7997	162.429	0.508621	1.59676	0.005	-0.9726163	0.005
1.8996	174.393	0.508621	1.71437	0.005	-0.9948409	0.005