File: data/looselyPackedNP/nanoparticles/vsm/ios-11/finalPMK18.xy
# B /   T  			M / kAm-1 			sM / kAm-1
-0.0008	-0.995558	0.104411
0.000000000000000000e+00	0.69891	0.104411
0.001	3.03435	0.104411
0.002	5.02911	0.104411
0.003	6.7929	0.104411
0.004	8.79184	0.104411
0.005	10.7306	0.104411
0.0075	15.4217	0.104411
0.01	20.1462	0.104411
0.0125	25.1345	0.104411
0.015	29.9199	0.104411
0.0175	34.7994	0.104411
0.02	39.0629	0.104411
0.0225	43.7657	0.104411
0.025	47.7424	0.104411
0.0275	52.5401	0.104411
0.03	57.0189	0.104411
0.0325	60.429	0.104411
0.035	64.3125	0.104411
0.0375	69.0254	0.104411
0.04	72.395	0.104411
0.0425	75.8749	0.104411
0.045	79.3936	0.104411
0.0475	82.9217	0.104411
0.05	86.2784	0.104411
0.0525	89.5426	0.104411
0.055	92.5187	0.104411
0.0574	94.4272	0.104411
0.0599	96.7127	0.104411
0.0624	100.228	0.104411
0.0649	104.594	0.104411
0.0674	105.639	0.104411
0.0699	107.401	0.104411
0.0724	110.079	0.104411
0.0749	112.834	0.104411
0.0775	115.451	0.104411
0.08	117.659	0.104411
0.0825	119.939	0.104411
0.085	121.6	0.104411
0.0874	124.06	0.104411
0.09	125.282	0.104411
0.0925	127.029	0.104411
0.095	128.546	0.104411
0.0975	129.622	0.104411
0.1	132.63	0.104411
0.15	153.88	0.104411
0.2	163.034	0.104411
0.2499	177.931	0.104411
0.3	183.493	0.104411
0.35	188.474	0.104411
0.4	191.698	0.104411
0.45	194.56	0.104411
0.5	197.509	0.104411
0.5501	199.848	0.104411
0.6001	201.126	0.104411
0.6501	203.359	0.104411
0.7001	205.514	0.104411
0.7501	206.452	0.104411
0.8002	207.462	0.104411
0.8501	208.75	0.104411
0.9001	209.658	0.104411
0.9502	210.759	0.104411
1.0002	212.57	0.104411
1.1001	214.179	0.104411
1.2002	216.742	0.104411
1.3001	218.294	0.104411
1.4002	219.207	0.104411
1.5002	220.883	0.104411
1.6002	222.97	0.104411
1.7002	223.988	0.104411
1.8002	224.846	0.104411
1.9002	226.546	0.104411
1.8006	225.703	0.104411
1.7005	224.359	0.104411
1.6007	223.274	0.104411
1.5005	221.532	0.104411
1.4005	219.738	0.104411
1.3004	218.701	0.104411
1.2004	216.233	0.104411
1.1003	213.55	0.104411
1.0004	212.031	0.104411
0.9503	210.413	0.104411
0.9003	209.366	0.104411
0.8502	208.248	0.104411
0.8003	206.918	0.104411
0.7503	205.289	0.104411
0.7002	204.288	0.104411
0.6502	202.985	0.104411
0.6002	201.316	0.104411
0.5502	198.596	0.104411
0.5002	196.655	0.104411
0.4501	194.018	0.104411
0.4002	191.5	0.104411
0.3501	187.931	0.104411
0.3001	183.529	0.104411
0.2501	177.732	0.104411
0.2002	169.885	0.104411
0.1502	156.985	0.104411
0.1001	134.546	0.104411
0.0975	132.46	0.104411
0.095	130.903	0.104411
0.0925	129.067	0.104411
0.09	127.491	0.104411
0.0875	125.872	0.104411
0.085	123.875	0.104411
0.0825	121.891	0.104411
0.08	119.909	0.104411
0.0775	117.607	0.104411
0.075	115.189	0.104411
0.0725	113.195	0.104411
0.07	110.399	0.104411
0.0674	108.291	0.104411
0.065	105.475	0.104411
0.0625	102.889	0.104411
0.06	99.9912	0.104411
0.0575	97.1764	0.104411
0.055	94.3379	0.104411
0.0525	91.272	0.104411
0.05	87.9704	0.104411
0.0475	84.3466	0.104411
0.045	80.9363	0.104411
0.0425	77.6161	0.104411
0.04	73.809	0.104411
0.0375	70.1034	0.104411
0.035	65.8688	0.104411
0.0325	61.9463	0.104411
0.03	57.7848	0.104411
0.0275	53.5706	0.104411
0.025	49.2715	0.104411
0.0225	44.7198	0.104411
0.02	40.0781	0.104411
0.0175	35.4483	0.104411
0.015	30.737	0.104411
0.0125	25.8358	0.104411
0.01	20.9262	0.104411
0.0075	16.047	0.104411
0.005	10.8982	0.104411
0.004	9.07546	0.104411
0.003	7.00164	0.104411
0.002	4.92786	0.104411
0.001	3.10342	0.104411
0.000000000000000000e+00	0.938028	0.104411
-0.0008	-1.0399	0.104411
-0.0018	-2.99325	0.104411
-0.0028	-4.99411	0.104411
-0.0038	-7.0238	0.104411
-0.0048	-9.00259	0.104411
-0.0073	-13.9835	0.104411
-0.0098	-19.1188	0.104411
-0.0123	-23.8758	0.104411
-0.0148	-28.6566	0.104411
-0.0173	-33.629	0.104411
-0.0198	-38.1418	0.104411
-0.0223	-42.8785	0.104411
-0.0248	-47.3607	0.104411
-0.0273	-51.8395	0.104411
-0.0298	-55.8621	0.104411
-0.0323	-60.1441	0.104411
-0.0348	-64.4024	0.104411
-0.0373	-68.3197	0.104411
-0.0398	-72.2202	0.104411
-0.0423	-75.6136	0.104411
-0.0448	-79.5395	0.104411
-0.0473	-83.1532	0.104411
-0.0498	-86.3988	0.104411
-0.0523	-89.7021	0.104411
-0.0548	-92.5373	0.104411
-0.0573	-95.7422	0.104411
-0.0598	-98.6385	0.104411
-0.0623	-101.731	0.104411
-0.0648	-104.103	0.104411
-0.0674	-106.956	0.104411
-0.0699	-109.583	0.104411
-0.0723	-111.462	0.104411
-0.0749	-114.206	0.104411
-0.0773	-116.385	0.104411
-0.0799	-118.784	0.104411
-0.0823	-120.733	0.104411
-0.0848	-122.541	0.104411
-0.0873	-124.818	0.104411
-0.0898	-126.382	0.104411
-0.0924	-128.014	0.104411
-0.0948	-129.907	0.104411
-0.0974	-131.699	0.104411
-0.0999	-133.152	0.104411
-0.1497	-156.383	0.104411
-0.1997	-168.805	0.104411
-0.2498	-176.843	0.104411
-0.2998	-182.65	0.104411
-0.3498	-187.163	0.104411
-0.3998	-190.518	0.104411
-0.4498	-193.952	0.104411
-0.4999	-196.14	0.104411
-0.5498	-198.067	0.104411
-0.5999	-200.009	0.104411
-0.6499	-202.322	0.104411
-0.6999	-203.707	0.104411
-0.7499	-204.359	0.104411
-0.7999	-206.368	0.104411
-0.8499	-207.313	0.104411
-0.8999	-208.942	0.104411
-0.9499	-209.86	0.104411
-0.9999	-211.327	0.104411
-1.1	-212.543	0.104411
-1.2	-214.653	0.104411
-1.3	-216.674	0.104411
-1.3999	-218.058	0.104411
-1.5	-219.766	0.104411
-1.5999	-221.985	0.104411
-1.7001	-222.191	0.104411
-1.8001	-224.357	0.104411
-1.9001	-224.345	0.104411
-1.8004	-224.006	0.104411
-1.7004	-222.153	0.104411
-1.6003	-220.646	0.104411
-1.5003	-219.856	0.104411
-1.4003	-218.58	0.104411
-1.3003	-216.734	0.104411
-1.2002	-214.853	0.104411
-1.1002	-212.252	0.104411
-1.0001	-210.98	0.104411
-0.9501	-209.291	0.104411
-0.9001	-208.432	0.104411
-0.8501	-206.933	0.104411
-0.8	-205.39	0.104411
-0.7501	-204.274	0.104411
-0.7001	-203.123	0.104411
-0.6501	-201.414	0.104411
-0.6	-199.826	0.104411
-0.55	-197.973	0.104411
-0.5	-195.122	0.104411
-0.45	-193.532	0.104411
-0.3999	-190.008	0.104411
-0.3499	-186.859	0.104411
-0.3	-182.2	0.104411
-0.25	-176.561	0.104411
-0.1999	-167.6	0.104411
-0.1499	-155.814	0.104411
-0.1	-133.105	0.104411
-0.0974	-131.286	0.104411
-0.0949	-130.013	0.104411
-0.0924	-127.91	0.104411
-0.0899	-126.374	0.104411
-0.0874	-124.442	0.104411
-0.0849	-122.606	0.104411
-0.0824	-120.405	0.104411
-0.0798	-118.383	0.104411
-0.0774	-116.073	0.104411
-0.0749	-113.884	0.104411
-0.0724	-111.393	0.104411
-0.0699	-109.062	0.104411
-0.0674	-106.296	0.104411
-0.0649	-104.012	0.104411
-0.0623	-101.453	0.104411
-0.0598	-98.5774	0.104411
-0.0573	-95.6557	0.104411
-0.0548	-92.5712	0.104411
-0.0523	-89.4019	0.104411
-0.0498	-85.9747	0.104411
-0.0473	-82.7189	0.104411
-0.0448	-79.2037	0.104411
-0.0423	-75.7068	0.104411
-0.0398	-71.8622	0.104411
-0.0373	-68.3215	0.104411
-0.035	-64.6543	0.104411
-0.0323	-60.1611	0.104411
-0.0298	-55.9927	0.104411
-0.0273	-51.7208	0.104411
-0.0248	-47.4219	0.104411
-0.0225	-43.1321	0.104411
-0.0198	-38.2114	0.104411
-0.0175	-34.0166	0.104411
-0.0148	-28.7583	0.104411
-0.0125	-24.4178	0.104411
-0.01	-19.459	0.104411
-0.0073	-14.1955	0.104411
-0.005	-9.50218	0.104411
-0.0038	-7.1069	0.104411
-0.0027	-5.21588	0.104411
-0.0018	-3.10012	0.104411
-0.0008	-1.17899	0.104411
0.000000000000000000e+00	0.62083	0.104411
0.001	2.84898	0.104411
0.002	4.72431	0.104411
0.003	6.79301	0.104411
0.004	8.86509	0.104411
0.005	10.8202	0.104411
0.0075	15.7264	0.104411
0.01	20.721	0.104411
0.0125	25.6357	0.104411
0.015	30.3164	0.104411
0.0175	35.0208	0.104411
0.02	39.7966	0.104411
0.0225	44.2686	0.104411
0.025	48.7695	0.104411
0.0275	53.2602	0.104411
0.03	57.437	0.104411
0.0325	61.6784	0.104411
0.035	65.4396	0.104411
0.0375	69.5385	0.104411
0.04	73.0914	0.104411
0.0425	77.0851	0.104411
0.045	80.6497	0.104411
0.0475	83.8699	0.104411
0.05	87.2054	0.104411
0.0525	90.1932	0.104411
0.055	93.3032	0.104411
0.0575	96.3266	0.104411
0.06	99.5044	0.104411
0.0625	102.005	0.104411
0.065	104.569	0.104411
0.0675	107.216	0.104411
0.0699	109.518	0.104411
0.0725	112.079	0.104411
0.075	114.738	0.104411
0.0775	116.618	0.104411
0.08	118.337	0.104411
0.0825	120.548	0.104411
0.085	122.716	0.104411
0.0875	124.647	0.104411
0.09	126.67	0.104411
0.0925	128.126	0.104411
0.095	129.825	0.104411
0.0975	131.61	0.104411
0.1	133.251	0.104411
0.15	155.687	0.104411
0.2	168.186	0.104411
0.25	175.993	0.104411
0.3	181.768	0.104411
0.35	186.052	0.104411
0.4001	189.603	0.104411
0.45	192.019	0.104411
0.5	194.685	0.104411
0.5501	197.346	0.104411
0.6001	198.734	0.104411
0.6501	201.246	0.104411
0.7	202.411	0.104411
0.7501	203.49	0.104411
0.8002	204.278	0.104411
0.8501	206.484	0.104411
0.9001	207.474	0.104411
0.9502	208.483	0.104411
1.0002	209.721	0.104411
1.1001	211.741	0.104411
1.2002	214.259	0.104411
1.3001	215.41	0.104411
1.4002	216.697	0.104411
1.5001	218.776	0.104411
1.6002	220.983	0.104411
1.7002	221.435	0.104411
1.8002	223.297	0.104411
1.9002	224.146	0.104411