File: data/looselyPackedNP/nanoparticles/vsm/ios-11/PMK18_20muL_4cmTeflonPara_BGLinSub_rescale.xye
#Extracted data using VSM extraction tool v1.1
#Loaded parameter file: extractVSM.dat
#Desired unit of B: T
#Desired unit of M: memu
#Reading column for B: Applied Field
#Reading column for M: Raw Signal Mx
#Estimate noise level: 5e-3 memu
#Loading data from file: PMK18_20muL_4cmTeflonPara-Hys-00.VHD
#Save data to file: PMK18_20muL_4cmTeflonPara.xye
#Extraction performed at: Fri Jul 13 15:50:04 2018
#Unit of B in data: Oe
#Changing unit by multiplying with factor: 0.0001
#Unit of M in data: memu
#Applied image correction factors to M by linear interpolation of following values
#14999.0	1.0
#15248.0	1.000208
#15498.0	1.000487
#15748.0	1.000758
#15998.0	1.001102
#16248.0	1.001455
#16498.0	1.001726
#16747.0	1.002143
#16997.0	1.002623
#17248.0	1.003177
#17498.0	1.003731
#17748.0	1.004149
#17997.0	1.004841
#18247.0	1.005607
#18497.0	1.00631
#18746.0	1.007142
#18997.0	1.007912

#Substracted file: PMK18_20muL_4cmTeflonPara.xye
#Using Slope: -1.729
#Rescaled file: PMK18_20muL_4cmTeflonPara_BGLinSub.xye
#Rescale Factor: 0.0267605
#Sigma Scalefactor: 0.0
#B / T	M_scaled / kAm-1	sM_scaled / kAm-1	M_prescaling / memu	sM_prescaling / memu	M_raw / memu	sM_raw / memu
-0.0008	-0.890775	-0.186843	-0.02383756	0.005	-0.02245436	0.005
0.0	0.625349	0.186843	0.01673465	0.005	0.01673465	0.005
0.001	2.71498	0.186843	0.0726543	0.005	0.07092528	0.005
0.002	4.49979	0.186843	0.120417	0.005	0.1169585	0.005
0.003	6.07794	0.186843	0.1626487	0.005	0.1574617	0.005
0.004	7.86649	0.186843	0.210511	0.005	0.203595	0.005
0.005	9.60118	0.186843	0.2569322	0.005	0.2482872	0.005
0.0075	13.7986	0.186843	0.3692568	0.005	0.3562893	0.005
0.01	18.0258	0.186843	0.482378	0.005	0.4650878	0.005
0.0125	22.4891	0.186843	0.6018186	0.00500001	0.5802061	0.005
0.015	26.7708	0.186843	0.7163985	0.00500001	0.6904635	0.005
0.0175	31.1367	0.186843	0.8332342	0.00500002	0.8029767	0.005
0.02	34.9515	0.186843	0.93532	0.00500002	0.90074	0.005
0.0225	39.1593	0.186844	1.04792	0.00500002	1.009019	0.005
0.025	42.7174	0.186844	1.14314	0.00500003	1.099914	0.005
0.0275	47.0102	0.186844	1.25802	0.00500004	1.210468	0.005
0.03	51.0176	0.186844	1.365256	0.00500004	1.313386	0.005
0.0325	54.0688	0.186845	1.44691	0.00500005	1.390715	0.005
0.035	57.5435	0.186845	1.53989	0.00500006	1.479378	0.005
0.0375	61.7604	0.186845	1.65274	0.00500007	1.587901	0.005
0.04	64.7754	0.186846	1.73342	0.00500008	1.664261	0.005
0.0425	67.889	0.186846	1.81674	0.00500009	1.743259	0.005
0.045	71.0373	0.186846	1.900993	0.0050001	1.823188	0.005
0.0475	74.1941	0.186847	1.98547	0.00500011	1.903343	0.005
0.05	77.1975	0.186847	2.065842	0.00500012	1.979392	0.005
0.0525	80.1182	0.186848	2.144	0.00500014	2.053229	0.005
0.055	82.781	0.186848	2.21526	0.00500015	2.120165	0.005
0.0574	84.4886	0.186849	2.26096	0.00500016	2.161712	0.005
0.0599	86.5336	0.186849	2.31568	0.00500018	2.212115	0.005
0.0624	89.679	0.18685	2.39985	0.00500019	2.291964	0.005
0.0649	93.5855	0.18685	2.50439	0.00500021	2.392181	0.005
0.0674	94.5203	0.186851	2.52941	0.00500022	2.412874	0.005
0.0699	96.0971	0.186852	2.57161	0.00500024	2.450749	0.005
0.0724	98.4935	0.186852	2.63573	0.00500026	2.510553	0.005
0.0749	100.958	0.186853	2.70169	0.00500027	2.572185	0.005
0.0775	103.299	0.186854	2.76434	0.00500029	2.630346	0.005
0.08	105.275	0.186854	2.81722	0.00500031	2.6789	0.005
0.0825	107.315	0.186855	2.8718	0.00500033	2.729162	0.005
0.085	108.802	0.186856	2.91158	0.00500035	2.764618	0.005
0.0874	111.003	0.186857	2.97048	0.00500037	2.819368	0.005
0.09	112.096	0.186857	2.999752	0.0050004	2.844142	0.005
0.0925	113.659	0.186858	3.04156	0.00500042	2.881629	0.005
0.095	115.016	0.186859	3.07789	0.00500044	2.913633	0.005
0.0975	115.979	0.18686	3.10366	0.00500047	2.935079	0.005
0.1	118.671	0.186861	3.175684	0.00500049	3.002784	0.005
0.15	137.684	0.186884	3.684499	0.0050011	3.425149	0.005
0.2	145.875	0.186916	3.903678	0.00500196	3.557878	0.005
0.2499	159.204	0.186957	4.26037	0.00500306	3.828292	0.005
0.3	164.18	0.187007	4.393536	0.00500441	3.874836	0.005
0.35	168.637	0.187067	4.512803	0.005006	3.907653	0.005
0.4	171.521	0.187135	4.589992	0.00500783	3.898392	0.005
0.45	174.082	0.187213	4.65853	0.00500991	3.88048	0.005
0.5	176.721	0.1873	4.72914	0.00501224	3.86464	0.005
0.5501	178.814	0.187396	4.78514	0.00501481	3.834017	0.005
0.6001	179.957	0.187501	4.81575	0.00501761	3.778173	0.005
0.6501	181.955	0.187615	4.86922	0.00502067	3.745193	0.005
0.7001	183.884	0.187738	4.92082	0.00502396	3.710346	0.005
0.7501	184.722	0.18787	4.94326	0.00502749	3.646336	0.005
0.8002	185.627	0.188011	4.96746	0.00503128	3.583913	0.005
0.8501	186.779	0.188161	4.99829	0.00503529	3.528472	0.005
0.9001	187.592	0.18832	5.02005	0.00503954	3.463773	0.005
0.9502	188.576	0.188489	5.0464	0.00504405	3.403502	0.005
1.0002	190.197	0.188666	5.08975	0.00504878	3.360409	0.005
1.1001	191.636	0.189046	5.12828	0.00505895	3.226204	0.005
1.2002	193.93	0.189462	5.18966	0.00507009	3.114514	0.005
1.3001	195.318	0.189912	5.22681	0.00508215	2.978942	0.005
1.4002	196.135	0.190399	5.24868	0.00509516	2.827733	0.005
1.5002	197.635	0.190919	5.28882	0.00510909	2.694964	0.005
1.6002	199.608	0.191474	5.34162	0.00512394	2.572023	0.005
1.7002	200.651	0.192063	5.36953	0.00513969	2.423497	0.005
1.8002	201.593	0.192685	5.39472	0.00515635	2.271147	0.005
1.9002	203.334	0.193341	5.44132	0.0051739	2.138949	0.005
1.8006	202.364	0.192688	5.41536	0.00515642	2.290969	0.005
1.7005	200.985	0.192065	5.37845	0.00513974	2.431861	0.005
1.6007	199.881	0.191477	5.34892	0.00512401	2.57844	0.005
1.5005	198.216	0.190921	5.30437	0.00510913	2.709991	0.005
1.4005	196.61	0.1904	5.26138	0.0050952	2.839919	0.005
1.3004	195.682	0.189914	5.23655	0.00508219	2.988161	0.005
1.2004	193.474	0.189463	5.17745	0.00507012	3.101963	0.005
1.1003	191.074	0.189046	5.11323	0.00505897	3.210811	0.005
1.0004	189.715	0.188666	5.07686	0.0050488	3.347168	0.005
0.9503	188.267	0.188489	5.03812	0.00504406	3.395055	0.005
0.9003	187.33	0.188321	5.01304	0.00503956	3.456423	0.005
0.8502	186.33	0.188162	4.98628	0.00503529	3.516289	0.005
0.8003	185.14	0.188012	4.95443	0.00503129	3.570712	0.005
0.7503	183.682	0.187871	4.91542	0.00502751	3.618151	0.005
0.7002	182.787	0.187738	4.89146	0.00502397	3.680817	0.005
0.6502	181.62	0.187615	4.86025	0.00502067	3.736055	0.005
0.6002	180.128	0.187501	4.8203	0.00501762	3.782558	0.005
0.5502	177.694	0.187396	4.75518	0.00501481	3.803881	0.005
0.5002	175.957	0.1873	4.70869	0.00501224	3.843846	0.005
0.4501	173.597	0.187213	4.64554	0.00500992	3.867321	0.005
0.4002	171.344	0.187136	4.58526	0.00500784	3.893315	0.005
0.3501	168.151	0.187067	4.49981	0.005006	3.894492	0.005
0.3001	164.212	0.187007	4.3944	0.00500441	3.875525	0.005
0.2501	159.025	0.186957	4.2556	0.00500306	3.823174	0.005
0.2002	152.004	0.186916	4.0677	0.00500196	3.721556	0.005
0.1502	140.462	0.186884	3.75884	0.00500111	3.499147	0.005
0.1001	120.385	0.186861	3.22155	0.00500049	3.048475	0.005
0.0975	118.518	0.18686	3.17161	0.00500047	3.003028	0.005
0.095	117.126	0.186859	3.13434	0.00500044	2.970087	0.005
0.0925	115.483	0.186858	3.09038	0.00500042	2.930448	0.005
0.09	114.072	0.186857	3.05263	0.0050004	2.897023	0.005
0.0875	112.624	0.186857	3.01387	0.00500038	2.862582	0.005
0.085	110.837	0.186856	2.966048	0.00500035	2.819083	0.005
0.0825	109.062	0.186855	2.91855	0.00500033	2.775911	0.005
0.08	107.289	0.186854	2.871097	0.00500031	2.732777	0.005
0.0775	105.228	0.186854	2.81597	0.00500029	2.681968	0.005
0.075	103.065	0.186853	2.758071	0.00500028	2.628396	0.005
0.0725	101.281	0.186852	2.71033	0.00500026	2.584979	0.005
0.07	98.7793	0.186852	2.643381	0.00500024	2.522351	0.005
0.0674	96.8933	0.186851	2.59291	0.00500022	2.476376	0.005
0.065	94.3736	0.18685	2.52548	0.00500021	2.413097	0.005
0.0625	92.0599	0.18685	2.46357	0.00500019	2.355506	0.005
0.06	89.467	0.186849	2.394181	0.00500018	2.290441	0.005
0.0575	86.9485	0.186849	2.32678	0.00500016	2.227366	0.005
0.055	84.4087	0.186848	2.258818	0.00500015	2.163723	0.005
0.0525	81.6655	0.186848	2.18541	0.00500014	2.094637	0.005
0.05	78.7114	0.186847	2.10636	0.00500012	2.019906	0.005
0.0475	75.469	0.186847	2.01959	0.00500011	1.93746	0.005
0.045	72.4177	0.186846	1.937932	0.0050001	1.860127	0.005
0.0425	69.4469	0.186846	1.85843	0.00500009	1.78495	0.005
0.04	66.0405	0.186846	1.76728	0.00500008	1.698116	0.005
0.0375	62.7249	0.186845	1.67855	0.00500007	1.613712	0.005
0.035	58.9361	0.186845	1.577158	0.00500006	1.516643	0.005
0.0325	55.4264	0.186845	1.48324	0.00500005	1.427045	0.005
0.03	51.7029	0.186844	1.383594	0.00500004	1.331724	0.005
0.0275	47.9322	0.186844	1.28269	0.00500004	1.235142	0.005
0.025	44.0856	0.186844	1.179753	0.00500003	1.136528	0.005
0.0225	40.013	0.186844	1.07077	0.00500002	1.031864	0.005
0.02	35.8599	0.186843	0.959627	0.00500002	0.925047	0.005
0.0175	31.7173	0.186843	0.8487702	0.00500002	0.8185127	0.005
0.015	27.5019	0.186843	0.7359651	0.00500001	0.7100301	0.005
0.0125	23.1166	0.186843	0.618611	0.00500001	0.596998	0.005
0.01	18.7237	0.186843	0.5010555	0.005	0.4837655	0.005
0.0075	14.3581	0.186843	0.384229	0.005	0.371261	0.005
0.005	9.75114	0.186843	0.2609453	0.005	0.2523003	0.005
0.004	8.12026	0.186843	0.2173021	0.005	0.2103861	0.005
0.003	6.26471	0.186843	0.167647	0.005	0.1624598	0.005
0.002	4.4092	0.186843	0.117992	0.005	0.1145343	0.005
0.001	2.77678	0.186843	0.074308	0.005	0.07257896	0.005
0.0	0.839299	0.186843	0.02246006	0.005	0.02246006	0.005
-0.0008	-0.930448	-0.186843	-0.02489925	0.005	-0.02351605	0.005
-0.0018	-2.67821	-0.186843	-0.07167023	0.005	-0.06855803	0.005
-0.0028	-4.46848	-0.186843	-0.119579	0.005	-0.1147374	0.005
-0.0038	-6.28454	-0.186843	-0.1681772	0.005	-0.161607	0.005
-0.0048	-8.05506	-0.186843	-0.2155573	0.005	-0.2072581	0.005
-0.0073	-12.5117	-0.186843	-0.3348203	0.005	-0.3221986	0.005
-0.0098	-17.1066	-0.186843	-0.45778	0.005	-0.4408358	0.005
-0.0123	-21.3629	-0.186843	-0.571681	0.00500001	-0.550414	0.005
-0.0148	-25.6405	-0.186843	-0.6861517	0.00500001	-0.6605625	0.005
-0.0173	-30.0895	-0.186843	-0.8052104	0.00500001	-0.7752987	0.005
-0.0198	-34.1273	-0.186843	-0.9132641	0.00500002	-0.8790299	0.005
-0.0223	-38.3655	-0.186844	-1.02668	0.00500002	-0.988123	0.005
-0.0248	-42.376	-0.186844	-1.134	0.00500003	-1.091122	0.005
-0.0273	-46.3833	-0.186844	-1.24124	0.00500004	-1.194038	0.005
-0.0298	-49.9825	-0.186844	-1.33756	0.00500004	-1.286033	0.005
-0.0323	-53.8139	-0.186845	-1.44009	0.00500005	-1.384239	0.005
-0.0348	-57.624	-0.186845	-1.54205	0.00500006	-1.481876	0.005
-0.0373	-61.129	-0.186845	-1.63584	0.00500007	-1.57135	0.005
-0.0398	-64.6189	-0.186846	-1.72923	0.00500008	-1.66042	0.005
-0.0423	-67.6552	-0.186846	-1.81049	0.00500009	-1.737349	0.005
-0.0448	-71.1679	-0.186846	-1.90449	0.0050001	-1.827028	0.005
-0.0473	-74.4012	-0.186847	-1.99101	0.00500011	-1.909231	0.005
-0.0498	-77.3052	-0.186847	-2.06873	0.00500012	-1.982621	0.005
-0.0523	-80.2609	-0.186848	-2.14782	0.00500013	-2.057394	0.005
-0.0548	-82.7976	-0.186848	-2.21571	0.00500015	-2.120956	0.005
-0.0573	-85.6653	-0.186849	-2.29244	0.00500016	-2.193373	0.005
-0.0598	-88.2567	-0.186849	-2.36179	0.00500018	-2.258397	0.005
-0.0623	-91.0241	-0.18685	-2.43585	0.00500019	-2.328132	0.005
-0.0648	-93.1464	-0.18685	-2.49264	0.00500021	-2.380604	0.005
-0.0674	-95.6988	-0.186851	-2.56095	0.00500022	-2.444412	0.005
-0.0699	-98.0489	-0.186852	-2.62384	0.00500024	-2.502979	0.005
-0.0723	-99.7307	-0.186852	-2.66884	0.00500026	-2.543836	0.005
-0.0749	-102.186	-0.186853	-2.73455	0.00500027	-2.605043	0.005
-0.0773	-104.135	-0.186854	-2.7867	0.00500029	-2.65305	0.005
-0.0799	-106.282	-0.186854	-2.84416	0.00500031	-2.706012	0.005
-0.0823	-108.026	-0.186855	-2.89083	0.00500033	-2.748536	0.005
-0.0848	-109.643	-0.186856	-2.9341	0.00500035	-2.787484	0.005
-0.0873	-111.681	-0.186857	-2.98863	0.00500037	-2.837684	0.005
-0.0898	-113.081	-0.186857	-3.02609	0.0050004	-2.870826	0.005
-0.0924	-114.54	-0.186858	-3.06515	0.00500042	-2.905388	0.005
-0.0948	-116.234	-0.186859	-3.11048	0.00500044	-2.946572	0.005
-0.0974	-117.838	-0.18686	-3.1534	0.00500046	-2.984992	0.005
-0.0999	-119.138	-0.186861	-3.18818	0.00500049	-3.015456	0.005
-0.1497	-139.923	-0.186884	-3.74442	0.0050011	-3.485584	0.005
-0.1997	-151.038	-0.186916	-4.04186	0.00500195	-3.696577	0.005
-0.2498	-158.23	-0.186957	-4.23432	0.00500306	-3.80242	0.005
-0.2998	-163.426	-0.187007	-4.37337	0.0050044	-3.855013	0.005
-0.3498	-167.464	-0.187067	-4.48143	0.00500599	-3.876622	0.005
-0.3998	-170.466	-0.187135	-4.56174	0.00500783	-3.870489	0.005
-0.4498	-173.538	-0.187213	-4.64397	0.0050099	-3.866266	0.005
-0.4999	-175.496	-0.1873	-4.69636	0.00501223	-3.832028	0.005
-0.5498	-177.22	-0.187395	-4.7425	0.00501479	-3.7919	0.005
-0.5999	-178.958	-0.1875	-4.789	0.0050176	-3.751771	0.005
-0.6499	-181.027	-0.187614	-4.84438	0.00502065	-3.720701	0.005
-0.6999	-182.267	-0.187737	-4.87754	0.00502395	-3.667415	0.005
-0.7499	-182.85	-0.18787	-4.89316	0.00502748	-3.596584	0.005
-0.7999	-184.648	-0.188011	-4.94127	0.00503125	-3.558242	0.005
-0.8499	-185.493	-0.188161	-4.96387	0.00503527	-3.494397	0.005
-0.8999	-186.951	-0.18832	-5.00289	0.00503952	-3.446959	0.005
-0.9499	-187.772	-0.188488	-5.02488	0.00504402	-3.382502	0.005
-0.9999	-189.084	-0.188664	-5.05999	0.00504875	-3.33116	0.005
-1.1	-190.173	-0.189045	-5.089116	0.00505894	-3.187216	0.005
-1.2	-192.061	-0.189461	-5.13964	0.00507007	-3.064844	0.005
-1.3	-193.869	-0.189912	-5.188018	0.00508214	-2.940318	0.005
-1.3999	-195.107	-0.190397	-5.22115	0.00509512	-2.800725	0.005
-1.5	-196.636	-0.190918	-5.26207	0.00510906	-2.668563	0.005
-1.5999	-198.726	-0.191472	-5.31799	0.00512389	-2.548953	0.005
-1.7001	-199.039	-0.192062	-5.32638	0.00513968	-2.380646	0.005
-1.8001	-201.153	-0.192685	-5.38295	0.00515633	-2.259615	0.005
-1.9001	-201.35	-0.19334	-5.38821	0.00517389	-2.086434	0.005
-1.8004	-200.838	-0.192687	-5.37451	0.00515638	-2.250679	0.005
-1.7004	-199.006	-0.192064	-5.32549	0.00513972	-2.379225	0.005
-1.6003	-197.527	-0.191475	-5.28593	0.00512395	-2.516218	0.005
-1.5003	-196.716	-0.19092	-5.26422	0.0051091	-2.67019	0.005
-1.4003	-195.574	-0.190399	-5.23366	0.00509518	-2.812543	0.005
-1.3003	-193.923	-0.189913	-5.18947	0.00508217	-2.941252	0.005
-1.2002	-192.239	-0.189462	-5.14441	0.00507009	-3.069268	0.005
-1.1002	-189.912	-0.189046	-5.08215	0.00505896	-3.179904	0.005
-1.0001	-188.774	-0.188665	-5.05168	0.00504877	-3.322506	0.005
-0.9501	-187.263	-0.188488	-5.01125	0.00504404	-3.368531	0.005
-0.9001	-186.494	-0.18832	-4.99068	0.00503954	-3.434409	0.005
-0.8501	-185.154	-0.188161	-4.9548	0.00503529	-3.484975	0.005
-0.8	-183.773	-0.188011	-4.917845	0.00503126	-3.534645	0.005
-0.7501	-182.774	-0.18787	-4.89111	0.00502749	-3.594188	0.005
-0.7001	-181.744	-0.187738	-4.86355	0.00502396	-3.653079	0.005
-0.6501	-180.215	-0.187615	-4.82263	0.00502067	-3.698608	0.005
-0.6	-178.794	-0.187501	-4.784623	0.00501761	-3.747223	0.005
-0.55	-177.136	-0.187396	-4.74025	0.0050148	-3.7893	0.005
-0.5	-174.586	-0.1873	-4.671996	0.00501224	-3.807496	0.005
-0.45	-173.163	-0.187213	-4.63392	0.00500991	-3.855869	0.005
-0.3999	-170.009	-0.187135	-4.54953	0.00500783	-3.858103	0.005
-0.3499	-167.192	-0.187067	-4.47413	0.005006	-3.869151	0.005
-0.3	-163.023	-0.187007	-4.362586	0.00500441	-3.843886	0.005
-0.25	-157.978	-0.186957	-4.227562	0.00500306	-3.795312	0.005
-0.1999	-149.96	-0.186916	-4.013	0.00500196	-3.667375	0.005
-0.1499	-139.414	-0.186884	-3.73079	0.0050011	-3.471611	0.005
-0.1	-119.096	-0.186861	-3.187055	0.00500049	-3.014155	0.005
-0.0974	-117.468	-0.18686	-3.14349	0.00500046	-2.975085	0.005
-0.0949	-116.329	-0.186859	-3.11301	0.00500044	-2.948928	0.005
-0.0924	-114.448	-0.186858	-3.06267	0.00500042	-2.902913	0.005
-0.0899	-113.073	-0.186857	-3.0259	0.0050004	-2.87046	0.005
-0.0874	-111.344	-0.186857	-2.97962	0.00500037	-2.828506	0.005
-0.0849	-109.701	-0.186856	-2.93566	0.00500035	-2.788865	0.005
-0.0824	-107.732	-0.186855	-2.88296	0.00500033	-2.740494	0.005
-0.0798	-105.923	-0.186854	-2.83456	0.00500031	-2.696589	0.005
-0.0774	-103.856	-0.186854	-2.77924	0.00500029	-2.645414	0.005
-0.0749	-101.898	-0.186853	-2.72683	0.00500027	-2.597325	0.005
-0.0724	-99.6689	-0.186852	-2.66719	0.00500026	-2.542009	0.005
-0.0699	-97.583	-0.186852	-2.61137	0.00500024	-2.49051	0.005
-0.0674	-95.1084	-0.186851	-2.54515	0.00500022	-2.428612	0.005
-0.0649	-93.0649	-0.18685	-2.49046	0.00500021	-2.37825	0.005
-0.0623	-90.7752	-0.18685	-2.42919	0.00500019	-2.321471	0.005
-0.0598	-88.202	-0.186849	-2.36033	0.00500018	-2.256934	0.005
-0.0573	-85.5879	-0.186849	-2.29037	0.00500016	-2.191301	0.005
-0.0548	-82.828	-0.186848	-2.21652	0.00500015	-2.121767	0.005
-0.0523	-79.9923	-0.186848	-2.14063	0.00500013	-2.050205	0.005
-0.0498	-76.9258	-0.186847	-2.05857	0.00500012	-1.972468	0.005
-0.0473	-74.0127	-0.186847	-1.98061	0.00500011	-1.898833	0.005
-0.0448	-70.8674	-0.186846	-1.89645	0.0050001	-1.818987	0.005
-0.0423	-67.7386	-0.186846	-1.81272	0.00500009	-1.739582	0.005
-0.0398	-64.2987	-0.186846	-1.72066	0.00500008	-1.651849	0.005
-0.0373	-61.1306	-0.186845	-1.63588	0.00500007	-1.571392	0.005
-0.035	-57.8494	-0.186845	-1.54808	0.00500006	-1.487562	0.005
-0.0323	-53.8291	-0.186845	-1.44049	0.00500005	-1.384645	0.005
-0.0298	-50.0994	-0.186844	-1.34068	0.00500004	-1.28916	0.005
-0.0273	-46.2771	-0.186844	-1.2384	0.00500004	-1.191196	0.005
-0.0248	-42.4307	-0.186844	-1.13547	0.00500003	-1.092586	0.005
-0.0225	-38.5924	-0.186844	-1.03275	0.00500002	-0.993849	0.005
-0.0198	-34.1896	-0.186843	-0.9149311	0.00500002	-0.8806969	0.005
-0.0175	-30.4363	-0.186843	-0.8144907	0.00500002	-0.7842332	0.005
-0.0148	-25.7315	-0.186843	-0.6885873	0.00500001	-0.6629981	0.005
-0.0125	-21.8478	-0.186843	-0.584657	0.00500001	-0.5630445	0.005
-0.01	-17.4109	-0.186843	-0.4659238	0.005	-0.4486338	0.005
-0.0073	-12.7015	-0.186843	-0.339897	0.005	-0.3272753	0.005
-0.005	-8.50207	-0.186843	-0.227519	0.005	-0.2188744	0.005
-0.0038	-6.35889	-0.186843	-0.1701671	0.005	-0.1635969	0.005
-0.0027	-4.66691	-0.186843	-0.1248887	0.005	-0.1202204	0.005
-0.0018	-2.77383	-0.186843	-0.07422903	0.005	-0.07111683	0.005
-0.0008	-1.0549	-0.186843	-0.02822971	0.005	-0.02684651	0.005
0.0	0.555487	0.186843	0.0148651	0.005	0.0148651	0.005
0.001	2.54912	0.186843	0.06821579	0.005	0.06648679	0.005
0.002	4.22708	0.186843	0.1131186	0.005	0.1096606	0.005
0.003	6.07804	0.186843	0.1626513	0.005	0.1574643	0.005
0.004	7.93203	0.186843	0.212265	0.005	0.205349	0.005
0.005	9.68133	0.186843	0.2590771	0.005	0.2504321	0.005
0.0075	14.0712	0.186843	0.3765523	0.005	0.3635848	0.005
0.01	18.5401	0.186843	0.4961411	0.005	0.4788511	0.005
0.0125	22.9375	0.186843	0.613819	0.00500001	0.5922064	0.005
0.015	27.1256	0.186843	0.725894	0.00500001	0.6999585	0.005
0.0175	31.3349	0.186843	0.8385361	0.00500002	0.8082786	0.005
0.02	35.608	0.186843	0.952887	0.00500002	0.9183071	0.005
0.0225	39.6093	0.186844	1.05996	0.00500002	1.021061	0.005
0.025	43.6364	0.186844	1.167732	0.00500003	1.124507	0.005
0.0275	47.6545	0.186844	1.27526	0.00500004	1.22771	0.005
0.03	51.3917	0.186844	1.37527	0.00500004	1.323398	0.005
0.0325	55.1867	0.186845	1.47682	0.00500005	1.420629	0.005
0.035	58.552	0.186845	1.56688	0.00500006	1.506366	0.005
0.0375	62.2195	0.186845	1.66502	0.00500007	1.600186	0.005
0.04	65.3985	0.186846	1.750095	0.00500008	1.680935	0.005
0.0425	68.9718	0.186846	1.84572	0.00500009	1.772236	0.005
0.045	72.1612	0.186846	1.931069	0.0050001	1.853264	0.005
0.0475	75.0425	0.186847	2.00817	0.00500011	1.926046	0.005
0.05	78.027	0.186847	2.088039	0.00500012	2.001589	0.005
0.0525	80.7003	0.186848	2.15958	0.00500014	2.068807	0.005
0.055	83.4829	0.186848	2.23404	0.00500015	2.138949	0.005
0.0575	86.1881	0.186849	2.30644	0.00500016	2.207018	0.005
0.06	89.0315	0.186849	2.38253	0.00500018	2.278785	0.005
0.0625	91.2692	0.18685	2.44241	0.00500019	2.334345	0.005
0.065	93.5631	0.18685	2.503794	0.00500021	2.391409	0.005
0.0675	95.9314	0.186851	2.56717	0.00500022	2.450463	0.005
0.0699	97.9912	0.186852	2.62229	0.00500024	2.501434	0.005
0.0725	100.282	0.186852	2.68361	0.00500026	2.558254	0.005
0.075	102.661	0.186853	2.74727	0.00500028	2.617592	0.005
0.0775	104.344	0.186854	2.79229	0.00500029	2.65829	0.005
0.08	105.882	0.186854	2.83345	0.00500031	2.695127	0.005
0.0825	107.86	0.186855	2.88639	0.00500033	2.743743	0.005
0.085	109.8	0.186856	2.938308	0.00500035	2.791343	0.005
0.0875	111.528	0.186857	2.98454	0.00500038	2.833257	0.005
0.09	113.338	0.186857	3.032974	0.0050004	2.877364	0.005
0.0925	114.641	0.186858	3.06784	0.00500042	2.907906	0.005
0.095	116.161	0.186859	3.10851	0.00500044	2.944257	0.005
0.0975	117.758	0.18686	3.15126	0.00500047	2.982679	0.005
0.1	119.226	0.186861	3.19055	0.00500049	3.017648	0.005
0.15	139.301	0.186884	3.727754	0.0050011	3.468404	0.005
0.2	150.484	0.186916	4.027024	0.00500196	3.681224	0.005
0.25	157.469	0.186957	4.213955	0.00500306	3.781705	0.005
0.3	162.636	0.187007	4.35223	0.00500441	3.83353	0.005
0.35	166.47	0.187067	4.4548	0.005006	3.849655	0.005
0.4001	169.647	0.187136	4.53984	0.00500784	3.84807	0.005
0.45	171.809	0.187213	4.59769	0.00500991	3.81964	0.005
0.5	174.194	0.1873	4.661518	0.00501224	3.797018	0.005
0.5501	176.575	0.187396	4.72523	0.00501481	3.774112	0.005
0.6001	177.817	0.187501	4.75848	0.00501761	3.720905	0.005
0.6501	180.064	0.187615	4.81861	0.00502067	3.694586	0.005
0.7	181.107	0.187738	4.846524	0.00502395	3.636224	0.005
0.7501	182.072	0.18787	4.87235	0.00502749	3.575424	0.005
0.8002	182.778	0.188011	4.89122	0.00503128	3.507678	0.005
0.8501	184.751	0.188161	4.94403	0.00503529	3.474211	0.005
0.9001	185.637	0.18832	4.96773	0.00503954	3.411461	0.005
0.9502	186.54	0.188489	4.99189	0.00504405	3.348996	0.005
1.0002	187.648	0.188666	5.02155	0.00504878	3.292204	0.005
1.1001	189.455	0.189046	5.06991	0.00505895	3.167841	0.005
1.2002	191.708	0.189462	5.1302	0.00507009	3.055053	0.005
1.3001	192.738	0.189912	5.15777	0.00508215	2.909897	0.005
1.4002	193.889	0.190399	5.18857	0.00509516	2.767624	0.005
1.5001	195.75	0.190919	5.23836	0.00510907	2.644683	0.005
1.6002	197.829	0.191474	5.294	0.00512394	2.524462	0.005
1.7002	198.361	0.192063	5.30824	0.00513969	2.36237	0.005
1.8002	200.201	0.192685	5.35746	0.00515635	2.234068	0.005
1.9002	201.17	0.193341	5.38339	0.0051739	2.081479	0.005