File: data/monolayers/nanoparticles/Ac_CoFe_C_2/edx/data/DD130_9_YF45_1.txt
#FORMAT      : EMSA/MAS Spectral Data File
#VERSION     : 1.0
#TITLE       : Spectrum 2
#DATE        : 04-DEC-2018
#TIME        : 11:00
#OWNER       :
#NPOINTS     : 2048.
#NCOLUMNS    : 1.
#XUNITS      : keV
#YUNITS      : counts
#DATATYPE    : XY
#XPERCHAN    : 0.0100000
#OFFSET      : -0.200000
#SIGNALTYPE  : EDS
#CHOFFSET    : 20.0000
#LIVETIME    : 100
#REALTIME    : 124.31
#BEAMKV      : 20.0000
#PROBECUR    : 0.000000
#MAGCAM      : 1891.00
#XTILTSTGE   : 0.0
#AZIMANGLE   : 0.0
#ELEVANGLE   : 35.0
#XPOSITION mm: 0.0000
#YPOSITION mm: 0.0000
#ZPOSITION mm: 0.0000
##OXINSTPT   : 5
##OXINSTSTROB: 49.18
##OXINSTELEMS: 6,8,11,14,26,27
##OXINSTLABEL: 14, 1.740, Si
##OXINSTLABEL: 8, 0.525, O
##OXINSTLABEL: 26, 6.404, Fe
##OXINSTLABEL: 26, 7.058, Fe
##OXINSTLABEL: 26, 0.705, Fe
##OXINSTLABEL: 26, 0.628, Fe
##OXINSTLABEL: 27, 6.930, Co
##OXINSTLABEL: 27, 7.650, Co
##OXINSTLABEL: 27, 0.776, Co
##OXINSTLABEL: 27, 0.694, Co
##OXINSTLABEL: 27, 0.678, Co
##OXINSTLABEL: 6, 0.277, C
##OXINSTLABEL: 11, 1.041, Na
#SPECTRUM    : Spectral Data Starts Here
-0.20000, 0.
-0.18000, 0.
-0.16000, 1.
-0.14000, 2.
-0.12000, 2.
-0.10000, 2.
-0.08000, 5.
-0.06000, 36.
-0.04000, 411.
-0.02000, 2010.
0.00000, 4638.
0.02000, 5306.
0.04000, 2907.
0.06000, 862.
0.08000, 182.
0.10000, 75.
0.12000, 65.
0.14000, 46.
0.16000, 50.
0.18000, 59.
0.20000, 72.
0.22000, 82.
0.24000, 122.
0.26000, 175.
0.28000, 184.
0.30000, 184.
0.32000, 144.
0.34000, 161.
0.36000, 165.
0.38000, 164.
0.40000, 139.
0.42000, 133.
0.44000, 132.
0.46000, 192.
0.48000, 358.
0.50000, 627.
0.52000, 845.
0.54000, 669.
0.56000, 391.
0.58000, 164.
0.60000, 144.
0.62000, 159.
0.64000, 158.
0.66000, 224.
0.68000, 305.
0.70000, 429.
0.72000, 399.
0.74000, 323.
0.76000, 252.
0.78000, 237.
0.80000, 216.
0.82000, 143.
0.84000, 98.
0.86000, 77.
0.88000, 80.
0.90000, 68.
0.92000, 80.
0.94000, 85.
0.96000, 73.
0.98000, 88.
1.00000, 97.
1.02000, 123.
1.04000, 119.
1.06000, 124.
1.08000, 110.
1.10000, 111.
1.12000, 115.
1.14000, 106.
1.16000, 106.
1.18000, 99.
1.20000, 107.
1.22000, 141.
1.24000, 118.
1.26000, 135.
1.28000, 139.
1.30000, 117.
1.32000, 122.
1.34000, 136.
1.36000, 157.
1.38000, 137.
1.40000, 145.
1.42000, 140.
1.44000, 144.
1.46000, 177.
1.48000, 192.
1.50000, 213.
1.52000, 181.
1.54000, 192.
1.56000, 210.
1.58000, 213.
1.60000, 209.
1.62000, 245.
1.64000, 482.
1.66000, 1300.
1.68000, 3783.
1.70000, 8720.
1.72000, 14503.
1.74000, 17690.
1.76000, 15859.
1.78000, 10421.
1.80000, 5354.
1.82000, 2358.
1.84000, 1223.
1.86000, 719.
1.88000, 434.
1.90000, 224.
1.92000, 103.
1.94000, 66.
1.96000, 45.
1.98000, 45.
2.00000, 50.
2.02000, 47.
2.04000, 58.
2.06000, 46.
2.08000, 39.
2.10000, 50.
2.12000, 51.
2.14000, 51.
2.16000, 51.
2.18000, 45.
2.20000, 51.
2.22000, 51.
2.24000, 50.
2.26000, 55.
2.28000, 54.
2.30000, 61.
2.32000, 51.
2.34000, 50.
2.36000, 52.
2.38000, 53.
2.40000, 52.
2.42000, 50.
2.44000, 42.
2.46000, 54.
2.48000, 51.
2.50000, 48.
2.52000, 51.
2.54000, 44.
2.56000, 51.
2.58000, 45.
2.60000, 51.
2.62000, 48.
2.64000, 44.
2.66000, 60.
2.68000, 52.
2.70000, 45.
2.72000, 45.
2.74000, 49.
2.76000, 54.
2.78000, 49.
2.80000, 42.
2.82000, 54.
2.84000, 54.
2.86000, 48.
2.88000, 54.
2.90000, 54.
2.92000, 50.
2.94000, 54.
2.96000, 58.
2.98000, 44.
3.00000, 54.
3.02000, 47.
3.04000, 51.
3.06000, 44.
3.08000, 53.
3.10000, 49.
3.12000, 51.
3.14000, 42.
3.16000, 45.
3.18000, 55.
3.20000, 46.
3.22000, 41.
3.24000, 47.
3.26000, 44.
3.28000, 57.
3.30000, 40.
3.32000, 50.
3.34000, 47.
3.36000, 46.
3.38000, 40.
3.40000, 56.
3.42000, 49.
3.44000, 60.
3.46000, 61.
3.48000, 51.
3.50000, 56.
3.52000, 52.
3.54000, 49.
3.56000, 46.
3.58000, 53.
3.60000, 45.
3.62000, 40.
3.64000, 44.
3.66000, 53.
3.68000, 45.
3.70000, 37.
3.72000, 50.
3.74000, 54.
3.76000, 45.
3.78000, 45.
3.80000, 46.
3.82000, 45.
3.84000, 41.
3.86000, 42.
3.88000, 46.
3.90000, 47.
3.92000, 42.
3.94000, 41.
3.96000, 53.
3.98000, 41.
4.00000, 42.
4.02000, 46.
4.04000, 39.
4.06000, 44.
4.08000, 55.
4.10000, 43.
4.12000, 36.
4.14000, 37.
4.16000, 40.
4.18000, 43.
4.20000, 38.
4.22000, 43.
4.24000, 33.
4.26000, 43.
4.28000, 30.
4.30000, 40.
4.32000, 39.
4.34000, 41.
4.36000, 30.
4.38000, 44.
4.40000, 32.
4.42000, 42.
4.44000, 45.
4.46000, 49.
4.48000, 39.
4.50000, 42.
4.52000, 38.
4.54000, 35.
4.56000, 40.
4.58000, 29.
4.60000, 39.
4.62000, 36.
4.64000, 32.
4.66000, 37.
4.68000, 34.
4.70000, 35.
4.72000, 34.
4.74000, 32.
4.76000, 38.
4.78000, 37.
4.80000, 32.
4.82000, 26.
4.84000, 38.
4.86000, 29.
4.88000, 36.
4.90000, 34.
4.92000, 31.
4.94000, 34.
4.96000, 28.
4.98000, 25.
5.00000, 31.
5.02000, 38.
5.04000, 32.
5.06000, 35.
5.08000, 38.
5.10000, 40.
5.12000, 40.
5.14000, 36.
5.16000, 35.
5.18000, 33.
5.20000, 35.
5.22000, 26.
5.24000, 28.
5.26000, 27.
5.28000, 38.
5.30000, 37.
5.32000, 32.
5.34000, 29.
5.36000, 29.
5.38000, 24.
5.40000, 26.
5.42000, 33.
5.44000, 31.
5.46000, 21.
5.48000, 34.
5.50000, 30.
5.52000, 31.
5.54000, 36.
5.56000, 36.
5.58000, 28.
5.60000, 26.
5.62000, 29.
5.64000, 37.
5.66000, 32.
5.68000, 24.
5.70000, 33.
5.72000, 37.
5.74000, 33.
5.76000, 28.
5.78000, 26.
5.80000, 19.
5.82000, 31.
5.84000, 21.
5.86000, 22.
5.88000, 30.
5.90000, 32.
5.92000, 26.
5.94000, 31.
5.96000, 22.
5.98000, 23.
6.00000, 21.
6.02000, 26.
6.04000, 21.
6.06000, 30.
6.08000, 31.
6.10000, 34.
6.12000, 25.
6.14000, 21.
6.16000, 25.
6.18000, 25.
6.20000, 24.
6.22000, 24.
6.24000, 29.
6.26000, 50.
6.28000, 70.
6.30000, 106.
6.32000, 161.
6.34000, 248.
6.36000, 334.
6.38000, 387.
6.40000, 402.
6.42000, 381.
6.44000, 338.
6.46000, 284.
6.48000, 175.
6.50000, 117.
6.52000, 68.
6.54000, 40.
6.56000, 35.
6.58000, 26.
6.60000, 30.
6.62000, 39.
6.64000, 19.
6.66000, 25.
6.68000, 18.
6.70000, 29.
6.72000, 18.
6.74000, 31.
6.76000, 31.
6.78000, 41.
6.80000, 36.
6.82000, 57.
6.84000, 59.
6.86000, 81.
6.88000, 142.
6.90000, 129.
6.92000, 159.
6.94000, 136.
6.96000, 158.
6.98000, 137.
7.00000, 100.
7.02000, 102.
7.04000, 87.
7.06000, 109.
7.08000, 79.
7.10000, 53.
7.12000, 53.
7.14000, 37.
7.16000, 27.
7.18000, 21.
7.20000, 28.
7.22000, 25.
7.24000, 17.
7.26000, 21.
7.28000, 21.
7.30000, 19.
7.32000, 21.
7.34000, 20.
7.36000, 13.
7.38000, 13.
7.40000, 12.
7.42000, 17.
7.44000, 15.
7.46000, 22.
7.48000, 15.
7.50000, 20.
7.52000, 23.
7.54000, 18.
7.56000, 22.
7.58000, 25.
7.60000, 36.
7.62000, 35.
7.64000, 36.
7.66000, 41.
7.68000, 32.
7.70000, 26.
7.72000, 34.
7.74000, 21.
7.76000, 18.
7.78000, 18.
7.80000, 18.
7.82000, 11.
7.84000, 14.
7.86000, 14.
7.88000, 17.
7.90000, 14.
7.92000, 19.
7.94000, 18.
7.96000, 11.
7.98000, 11.
8.00000, 11.
8.02000, 21.
8.04000, 14.
8.06000, 16.
8.08000, 14.
8.10000, 20.
8.12000, 15.
8.14000, 11.
8.16000, 19.
8.18000, 17.
8.20000, 12.
8.22000, 18.
8.24000, 20.
8.26000, 14.
8.28000, 11.
8.30000, 17.
8.32000, 10.
8.34000, 13.
8.36000, 11.
8.38000, 13.
8.40000, 7.
8.42000, 11.
8.44000, 11.
8.46000, 15.
8.48000, 12.
8.50000, 16.
8.52000, 15.
8.54000, 23.
8.56000, 12.
8.58000, 16.
8.60000, 20.
8.62000, 17.
8.64000, 11.
8.66000, 17.
8.68000, 17.
8.70000, 12.
8.72000, 15.
8.74000, 9.
8.76000, 17.
8.78000, 17.
8.80000, 13.
8.82000, 12.
8.84000, 15.
8.86000, 12.
8.88000, 17.
8.90000, 13.
8.92000, 13.
8.94000, 18.
8.96000, 19.
8.98000, 15.
9.00000, 13.
9.02000, 11.
9.04000, 12.
9.06000, 11.
9.08000, 11.
9.10000, 14.
9.12000, 8.
9.14000, 10.
9.16000, 12.
9.18000, 11.
9.20000, 13.
9.22000, 11.
9.24000, 15.
9.26000, 18.
9.28000, 9.
9.30000, 14.
9.32000, 12.
9.34000, 9.
9.36000, 8.
9.38000, 14.
9.40000, 10.
9.42000, 11.
9.44000, 12.
9.46000, 9.
9.48000, 17.
9.50000, 9.
9.52000, 16.
9.54000, 14.
9.56000, 12.
9.58000, 14.
9.60000, 12.
9.62000, 12.
9.64000, 12.
9.66000, 9.
9.68000, 15.
9.70000, 14.
9.72000, 13.
9.74000, 15.
9.76000, 14.
9.78000, 8.
9.80000, 12.
9.82000, 15.
9.84000, 10.
9.86000, 11.
9.88000, 13.
9.90000, 15.
9.92000, 13.
9.94000, 10.
9.96000, 12.
9.98000, 14.
10.00000, 11.
10.02000, 10.
10.04000, 9.
10.06000, 8.
10.08000, 9.
10.10000, 10.
10.12000, 10.
10.14000, 8.
10.16000, 9.
10.18000, 9.
10.20000, 11.
10.22000, 9.
10.24000, 12.
10.26000, 8.
10.28000, 11.
10.30000, 14.
10.32000, 9.
10.34000, 10.
10.36000, 12.
10.38000, 11.
10.40000, 9.
10.42000, 12.
10.44000, 9.
10.46000, 12.
10.48000, 16.
10.50000, 9.
10.52000, 10.
10.54000, 5.
10.56000, 8.
10.58000, 10.
10.60000, 7.
10.62000, 8.
10.64000, 10.
10.66000, 9.
10.68000, 11.
10.70000, 13.
10.72000, 8.
10.74000, 15.
10.76000, 8.
10.78000, 9.
10.80000, 8.
10.82000, 10.
10.84000, 8.
10.86000, 8.
10.88000, 8.
10.90000, 10.
10.92000, 7.
10.94000, 8.
10.96000, 7.
10.98000, 8.
11.00000, 8.
11.02000, 11.
11.04000, 12.
11.06000, 12.
11.08000, 6.
11.10000, 12.
11.12000, 9.
11.14000, 9.
11.16000, 10.
11.18000, 10.
11.20000, 8.
11.22000, 6.
11.24000, 13.
11.26000, 9.
11.28000, 7.
11.30000, 10.
11.32000, 9.
11.34000, 13.
11.36000, 8.
11.38000, 12.
11.40000, 8.
11.42000, 10.
11.44000, 9.
11.46000, 7.
11.48000, 11.
11.50000, 10.
11.52000, 7.
11.54000, 9.
11.56000, 9.
11.58000, 9.
11.60000, 10.
11.62000, 9.
11.64000, 7.
11.66000, 7.
11.68000, 6.
11.70000, 7.
11.72000, 5.
11.74000, 10.
11.76000, 10.
11.78000, 9.
11.80000, 6.
11.82000, 7.
11.84000, 9.
11.86000, 6.
11.88000, 5.
11.90000, 6.
11.92000, 5.
11.94000, 6.
11.96000, 9.
11.98000, 10.
12.00000, 11.
12.02000, 6.
12.04000, 7.
12.06000, 6.
12.08000, 5.
12.10000, 7.
12.12000, 9.
12.14000, 3.
12.16000, 8.
12.18000, 9.
12.20000, 5.
12.22000, 7.
12.24000, 7.
12.26000, 7.
12.28000, 9.
12.30000, 9.
12.32000, 4.
12.34000, 8.
12.36000, 7.
12.38000, 5.
12.40000, 8.
12.42000, 10.
12.44000, 7.
12.46000, 5.
12.48000, 7.
12.50000, 7.
12.52000, 11.
12.54000, 8.
12.56000, 7.
12.58000, 7.
12.60000, 6.
12.62000, 5.
12.64000, 3.
12.66000, 5.
12.68000, 9.
12.70000, 9.
12.72000, 7.
12.74000, 5.
12.76000, 5.
12.78000, 6.
12.80000, 8.
12.82000, 9.
12.84000, 6.
12.86000, 5.
12.88000, 7.
12.90000, 5.
12.92000, 5.
12.94000, 8.
12.96000, 6.
12.98000, 8.
13.00000, 5.
13.02000, 4.
13.04000, 8.
13.06000, 4.
13.08000, 7.
13.10000, 5.
13.12000, 6.
13.14000, 4.
13.16000, 7.
13.18000, 8.
13.20000, 4.
13.22000, 4.
13.24000, 5.
13.26000, 4.
13.28000, 7.
13.30000, 5.
13.32000, 5.
13.34000, 4.
13.36000, 9.
13.38000, 6.
13.40000, 8.
13.42000, 5.
13.44000, 6.
13.46000, 6.
13.48000, 6.
13.50000, 7.
13.52000, 4.
13.54000, 11.
13.56000, 4.
13.58000, 4.
13.60000, 5.
13.62000, 5.
13.64000, 5.
13.66000, 7.
13.68000, 7.
13.70000, 5.
13.72000, 8.
13.74000, 2.
13.76000, 7.
13.78000, 6.
13.80000, 4.
13.82000, 6.
13.84000, 3.
13.86000, 5.
13.88000, 7.
13.90000, 8.
13.92000, 9.
13.94000, 4.
13.96000, 5.
13.98000, 4.
14.00000, 9.
14.02000, 7.
14.04000, 4.
14.06000, 5.
14.08000, 5.
14.10000, 3.
14.12000, 7.
14.14000, 3.
14.16000, 6.
14.18000, 4.
14.20000, 4.
14.22000, 5.
14.24000, 7.
14.26000, 5.
14.28000, 5.
14.30000, 3.
14.32000, 5.
14.34000, 7.
14.36000, 10.
14.38000, 6.
14.40000, 3.
14.42000, 4.
14.44000, 5.
14.46000, 6.
14.48000, 5.
14.50000, 5.
14.52000, 3.
14.54000, 4.
14.56000, 3.
14.58000, 6.
14.60000, 7.
14.62000, 7.
14.64000, 6.
14.66000, 4.
14.68000, 4.
14.70000, 7.
14.72000, 3.
14.74000, 5.
14.76000, 6.
14.78000, 4.
14.80000, 5.
14.82000, 4.
14.84000, 5.
14.86000, 7.
14.88000, 6.
14.90000, 5.
14.92000, 3.
14.94000, 4.
14.96000, 3.
14.98000, 5.
15.00000, 3.
15.02000, 4.
15.04000, 1.
15.06000, 4.
15.08000, 4.
15.10000, 8.
15.12000, 6.
15.14000, 1.
15.16000, 2.
15.18000, 3.
15.20000, 3.
15.22000, 5.
15.24000, 1.
15.26000, 2.
15.28000, 3.
15.30000, 7.
15.32000, 3.
15.34000, 2.
15.36000, 6.
15.38000, 1.
15.40000, 7.
15.42000, 3.
15.44000, 2.
15.46000, 1.
15.48000, 7.
15.50000, 5.
15.52000, 4.
15.54000, 6.
15.56000, 2.
15.58000, 7.
15.60000, 3.
15.62000, 3.
15.64000, 0.
15.66000, 2.
15.68000, 1.
15.70000, 4.
15.72000, 5.
15.74000, 1.
15.76000, 3.
15.78000, 5.
15.80000, 3.
15.82000, 2.
15.84000, 3.
15.86000, 5.
15.88000, 4.
15.90000, 1.
15.92000, 2.
15.94000, 3.
15.96000, 1.
15.98000, 5.
16.00000, 3.
16.02000, 1.
16.04000, 3.
16.06000, 4.
16.08000, 3.
16.10000, 4.
16.12000, 5.
16.14000, 3.
16.16000, 1.
16.18000, 3.
16.20000, 1.
16.22000, 3.
16.24000, 0.
16.26000, 4.
16.28000, 2.
16.30000, 1.
16.32000, 2.
16.34000, 2.
16.36000, 0.
16.38000, 3.
16.40000, 3.
16.42000, 1.
16.44000, 2.
16.46000, 5.
16.48000, 2.
16.50000, 3.
16.52000, 2.
16.54000, 0.
16.56000, 1.
16.58000, 3.
16.60000, 5.
16.62000, 1.
16.64000, 1.
16.66000, 4.
16.68000, 2.
16.70000, 4.
16.72000, 4.
16.74000, 2.
16.76000, 1.
16.78000, 2.
16.80000, 2.
16.82000, 2.
16.84000, 0.
16.86000, 2.
16.88000, 0.
16.90000, 1.
16.92000, 2.
16.94000, 1.
16.96000, 1.
16.98000, 6.
17.00000, 5.
17.02000, 3.
17.04000, 4.
17.06000, 6.
17.08000, 0.
17.10000, 0.
17.12000, 1.
17.14000, 0.
17.16000, 0.
17.18000, 2.
17.20000, 1.
17.22000, 2.
17.24000, 0.
17.26000, 2.
17.28000, 1.
17.30000, 1.
17.32000, 0.
17.34000, 2.
17.36000, 0.
17.38000, 0.
17.40000, 0.
17.42000, 0.
17.44000, 2.
17.46000, 3.
17.48000, 0.
17.50000, 1.
17.52000, 2.
17.54000, 3.
17.56000, 1.
17.58000, 2.
17.60000, 1.
17.62000, 4.
17.64000, 1.
17.66000, 3.
17.68000, 2.
17.70000, 1.
17.72000, 1.
17.74000, 2.
17.76000, 1.
17.78000, 3.
17.80000, 0.
17.82000, 0.
17.84000, 0.
17.86000, 2.
17.88000, 2.
17.90000, 1.
17.92000, 0.
17.94000, 2.
17.96000, 2.
17.98000, 1.
18.00000, 2.
18.02000, 2.
18.04000, 3.
18.06000, 2.
18.08000, 1.
18.10000, 0.
18.12000, 1.
18.14000, 1.
18.16000, 0.
18.18000, 2.
18.20000, 1.
18.22000, 0.
18.24000, 0.
18.26000, 1.
18.28000, 2.
18.30000, 0.
18.32000, 2.
18.34000, 3.
18.36000, 0.
18.38000, 0.
18.40000, 1.
18.42000, 1.
18.44000, 1.
18.46000, 1.
18.48000, 0.
18.50000, 0.
18.52000, 2.
18.54000, 2.
18.56000, 1.
18.58000, 2.
18.60000, 2.
18.62000, 1.
18.64000, 1.
18.66000, 1.
18.68000, 0.
18.70000, 2.
18.72000, 2.
18.74000, 0.
18.76000, 1.
18.78000, 1.
18.80000, 0.
18.82000, 1.
18.84000, 1.
18.86000, 0.
18.88000, 2.
18.90000, 0.
18.92000, 1.
18.94000, 0.
18.96000, 1.
18.98000, 1.
19.00000, 1.
19.02000, 0.
19.04000, 0.
19.06000, 1.
19.08000, 2.
19.10000, 0.
19.12000, 0.
19.14000, 0.
19.16000, 1.
19.18000, 0.
19.20000, 1.
19.22000, 1.
19.24000, 1.
19.26000, 1.
19.28000, 0.
19.30000, 0.
19.32000, 1.
19.34000, 0.
19.36000, 1.
19.38000, 1.
19.40000, 0.
19.42000, 0.
19.44000, 0.
19.46000, 1.
19.48000, 2.
19.50000, 1.
19.52000, 0.
19.54000, 0.
19.56000, 1.
19.58000, 0.
19.60000, 1.
19.62000, 0.
19.64000, 0.
19.66000, 0.
19.68000, 0.
19.70000, 0.
19.72000, 0.
19.74000, 0.
19.76000, 0.
19.78000, 0.
19.80000, 0.
19.82000, 0.
19.84000, 0.
19.86000, 0.
19.88000, 0.
19.90000, 0.
19.92000, 0.
19.94000, 0.
19.96000, 0.
19.98000, 0.
20.00000, 0.
20.02000, 0.
20.04000, 0.
20.06000, 0.
20.08000, 0.
20.10000, 0.
20.12000, 0.
20.14000, 0.
20.16000, 0.
20.18000, 0.
20.20000, 0.
20.22000, 0.
20.24000, 0.
20.26000, 0.
20.27000, 0.
#ENDOFDATA   :