File: data/monolayers/nanoparticles/Ac_CoFe_C_2/edx/data/DD130_9_YF45_5.txt
#FORMAT      : EMSA/MAS Spectral Data File
#VERSION     : 1.0
#TITLE       : Spectrum 1
#DATE        : 04-DEC-2018
#TIME        : 11:10
#OWNER       :
#NPOINTS     : 2048.
#NCOLUMNS    : 1.
#XUNITS      : keV
#YUNITS      : counts
#DATATYPE    : XY
#XPERCHAN    : 0.0100000
#OFFSET      : -0.200000
#SIGNALTYPE  : EDS
#CHOFFSET    : 20.0000
#LIVETIME    : 100
#REALTIME    : 112.445
#BEAMKV      : 20.0000
#PROBECUR    : 0.000000
#MAGCAM      : 1390.00
#XTILTSTGE   : 0.0
#AZIMANGLE   : 0.0
#ELEVANGLE   : 35.0
#XPOSITION mm: 0.0000
#YPOSITION mm: 0.0000
#ZPOSITION mm: 0.0000
##OXINSTPT   : 5
##OXINSTSTROB: 49.04
##OXINSTELEMS: 5,6,8,11,14,26,27
##OXINSTLABEL: 26, 6.404, Fe
##OXINSTLABEL: 26, 7.058, Fe
##OXINSTLABEL: 26, 0.705, Fe
##OXINSTLABEL: 26, 0.628, Fe
##OXINSTLABEL: 8, 0.525, O
##OXINSTLABEL: 27, 6.930, Co
##OXINSTLABEL: 27, 7.650, Co
##OXINSTLABEL: 27, 0.776, Co
##OXINSTLABEL: 27, 0.694, Co
##OXINSTLABEL: 27, 0.678, Co
##OXINSTLABEL: 6, 0.277, C
##OXINSTLABEL: 11, 1.041, Na
##OXINSTLABEL: 14, 1.740, Si
##OXINSTLABEL: 5, 0.183, B
#SPECTRUM    : Spectral Data Starts Here
-0.20000, 0.
-0.18000, 0.
-0.16000, 0.
-0.14000, 0.
-0.12000, 4.
-0.10000, 3.
-0.08000, 2.
-0.06000, 38.
-0.04000, 404.
-0.02000, 1956.
0.00000, 4520.
0.02000, 5183.
0.04000, 2890.
0.06000, 757.
0.08000, 113.
0.10000, 75.
0.12000, 101.
0.14000, 125.
0.16000, 97.
0.18000, 60.
0.20000, 37.
0.22000, 61.
0.24000, 135.
0.26000, 226.
0.28000, 217.
0.30000, 137.
0.32000, 56.
0.34000, 28.
0.36000, 26.
0.38000, 40.
0.40000, 50.
0.42000, 67.
0.44000, 103.
0.46000, 298.
0.48000, 728.
0.50000, 1526.
0.52000, 2114.
0.54000, 1714.
0.56000, 826.
0.58000, 330.
0.60000, 228.
0.62000, 225.
0.64000, 250.
0.66000, 336.
0.68000, 514.
0.70000, 708.
0.72000, 650.
0.74000, 481.
0.76000, 352.
0.78000, 300.
0.80000, 250.
0.82000, 137.
0.84000, 83.
0.86000, 44.
0.88000, 33.
0.90000, 34.
0.92000, 26.
0.94000, 28.
0.96000, 33.
0.98000, 39.
1.00000, 52.
1.02000, 64.
1.04000, 76.
1.06000, 72.
1.08000, 64.
1.10000, 51.
1.12000, 57.
1.14000, 49.
1.16000, 54.
1.18000, 53.
1.20000, 45.
1.22000, 52.
1.24000, 49.
1.26000, 52.
1.28000, 63.
1.30000, 58.
1.32000, 58.
1.34000, 58.
1.36000, 57.
1.38000, 67.
1.40000, 64.
1.42000, 75.
1.44000, 65.
1.46000, 64.
1.48000, 67.
1.50000, 65.
1.52000, 77.
1.54000, 66.
1.56000, 69.
1.58000, 70.
1.60000, 70.
1.62000, 79.
1.64000, 79.
1.66000, 82.
1.68000, 82.
1.70000, 89.
1.72000, 109.
1.74000, 108.
1.76000, 117.
1.78000, 101.
1.80000, 103.
1.82000, 94.
1.84000, 70.
1.86000, 83.
1.88000, 82.
1.90000, 78.
1.92000, 75.
1.94000, 79.
1.96000, 85.
1.98000, 82.
2.00000, 82.
2.02000, 71.
2.04000, 93.
2.06000, 93.
2.08000, 89.
2.10000, 80.
2.12000, 92.
2.14000, 79.
2.16000, 69.
2.18000, 86.
2.20000, 77.
2.22000, 80.
2.24000, 87.
2.26000, 74.
2.28000, 89.
2.30000, 88.
2.32000, 82.
2.34000, 82.
2.36000, 90.
2.38000, 81.
2.40000, 78.
2.42000, 83.
2.44000, 95.
2.46000, 86.
2.48000, 78.
2.50000, 79.
2.52000, 84.
2.54000, 86.
2.56000, 83.
2.58000, 83.
2.60000, 86.
2.62000, 100.
2.64000, 89.
2.66000, 88.
2.68000, 91.
2.70000, 89.
2.72000, 81.
2.74000, 82.
2.76000, 78.
2.78000, 80.
2.80000, 81.
2.82000, 78.
2.84000, 81.
2.86000, 79.
2.88000, 69.
2.90000, 77.
2.92000, 72.
2.94000, 79.
2.96000, 69.
2.98000, 81.
3.00000, 74.
3.02000, 85.
3.04000, 79.
3.06000, 68.
3.08000, 85.
3.10000, 87.
3.12000, 73.
3.14000, 68.
3.16000, 85.
3.18000, 63.
3.20000, 60.
3.22000, 78.
3.24000, 69.
3.26000, 67.
3.28000, 84.
3.30000, 69.
3.32000, 68.
3.34000, 62.
3.36000, 67.
3.38000, 75.
3.40000, 73.
3.42000, 60.
3.44000, 74.
3.46000, 68.
3.48000, 60.
3.50000, 65.
3.52000, 60.
3.54000, 69.
3.56000, 70.
3.58000, 69.
3.60000, 68.
3.62000, 57.
3.64000, 70.
3.66000, 69.
3.68000, 67.
3.70000, 61.
3.72000, 51.
3.74000, 72.
3.76000, 74.
3.78000, 61.
3.80000, 74.
3.82000, 62.
3.84000, 61.
3.86000, 59.
3.88000, 64.
3.90000, 59.
3.92000, 51.
3.94000, 62.
3.96000, 63.
3.98000, 63.
4.00000, 55.
4.02000, 48.
4.04000, 54.
4.06000, 57.
4.08000, 59.
4.10000, 51.
4.12000, 55.
4.14000, 59.
4.16000, 60.
4.18000, 55.
4.20000, 60.
4.22000, 48.
4.24000, 61.
4.26000, 54.
4.28000, 51.
4.30000, 49.
4.32000, 39.
4.34000, 52.
4.36000, 49.
4.38000, 58.
4.40000, 55.
4.42000, 46.
4.44000, 55.
4.46000, 49.
4.48000, 46.
4.50000, 44.
4.52000, 35.
4.54000, 51.
4.56000, 48.
4.58000, 65.
4.60000, 65.
4.62000, 54.
4.64000, 49.
4.66000, 51.
4.68000, 46.
4.70000, 46.
4.72000, 44.
4.74000, 60.
4.76000, 45.
4.78000, 45.
4.80000, 35.
4.82000, 48.
4.84000, 45.
4.86000, 53.
4.88000, 44.
4.90000, 47.
4.92000, 39.
4.94000, 45.
4.96000, 53.
4.98000, 52.
5.00000, 40.
5.02000, 51.
5.04000, 53.
5.06000, 47.
5.08000, 39.
5.10000, 48.
5.12000, 49.
5.14000, 36.
5.16000, 35.
5.18000, 52.
5.20000, 43.
5.22000, 36.
5.24000, 47.
5.26000, 40.
5.28000, 49.
5.30000, 43.
5.32000, 45.
5.34000, 34.
5.36000, 35.
5.38000, 40.
5.40000, 36.
5.42000, 46.
5.44000, 36.
5.46000, 41.
5.48000, 31.
5.50000, 34.
5.52000, 38.
5.54000, 32.
5.56000, 34.
5.58000, 47.
5.60000, 35.
5.62000, 34.
5.64000, 37.
5.66000, 49.
5.68000, 34.
5.70000, 45.
5.72000, 31.
5.74000, 38.
5.76000, 40.
5.78000, 30.
5.80000, 38.
5.82000, 44.
5.84000, 30.
5.86000, 32.
5.88000, 37.
5.90000, 38.
5.92000, 39.
5.94000, 36.
5.96000, 32.
5.98000, 34.
6.00000, 37.
6.02000, 37.
6.04000, 40.
6.06000, 39.
6.08000, 28.
6.10000, 33.
6.12000, 32.
6.14000, 49.
6.16000, 38.
6.18000, 49.
6.20000, 43.
6.22000, 56.
6.24000, 82.
6.26000, 136.
6.28000, 228.
6.30000, 418.
6.32000, 647.
6.34000, 989.
6.36000, 1331.
6.38000, 1648.
6.40000, 1670.
6.42000, 1559.
6.44000, 1434.
6.46000, 1041.
6.48000, 726.
6.50000, 425.
6.52000, 206.
6.54000, 116.
6.56000, 69.
6.58000, 64.
6.60000, 42.
6.62000, 30.
6.64000, 29.
6.66000, 38.
6.68000, 31.
6.70000, 37.
6.72000, 39.
6.74000, 40.
6.76000, 44.
6.78000, 63.
6.80000, 93.
6.82000, 144.
6.84000, 225.
6.86000, 337.
6.88000, 443.
6.90000, 539.
6.92000, 588.
6.94000, 581.
6.96000, 533.
6.98000, 480.
7.00000, 420.
7.02000, 347.
7.04000, 324.
7.06000, 271.
7.08000, 212.
7.10000, 167.
7.12000, 158.
7.14000, 94.
7.16000, 70.
7.18000, 45.
7.20000, 30.
7.22000, 19.
7.24000, 23.
7.26000, 30.
7.28000, 19.
7.30000, 29.
7.32000, 23.
7.34000, 24.
7.36000, 21.
7.38000, 31.
7.40000, 18.
7.42000, 19.
7.44000, 23.
7.46000, 11.
7.48000, 20.
7.50000, 29.
7.52000, 31.
7.54000, 34.
7.56000, 48.
7.58000, 56.
7.60000, 74.
7.62000, 81.
7.64000, 90.
7.66000, 83.
7.68000, 81.
7.70000, 71.
7.72000, 45.
7.74000, 40.
7.76000, 22.
7.78000, 31.
7.80000, 26.
7.82000, 24.
7.84000, 17.
7.86000, 17.
7.88000, 20.
7.90000, 18.
7.92000, 18.
7.94000, 23.
7.96000, 19.
7.98000, 17.
8.00000, 26.
8.02000, 20.
8.04000, 20.
8.06000, 27.
8.08000, 20.
8.10000, 16.
8.12000, 14.
8.14000, 12.
8.16000, 16.
8.18000, 13.
8.20000, 9.
8.22000, 22.
8.24000, 19.
8.26000, 12.
8.28000, 22.
8.30000, 17.
8.32000, 15.
8.34000, 19.
8.36000, 15.
8.38000, 16.
8.40000, 18.
8.42000, 11.
8.44000, 18.
8.46000, 16.
8.48000, 17.
8.50000, 21.
8.52000, 19.
8.54000, 14.
8.56000, 20.
8.58000, 14.
8.60000, 15.
8.62000, 24.
8.64000, 10.
8.66000, 18.
8.68000, 17.
8.70000, 17.
8.72000, 13.
8.74000, 20.
8.76000, 22.
8.78000, 13.
8.80000, 16.
8.82000, 18.
8.84000, 11.
8.86000, 7.
8.88000, 19.
8.90000, 12.
8.92000, 16.
8.94000, 15.
8.96000, 15.
8.98000, 20.
9.00000, 18.
9.02000, 23.
9.04000, 14.
9.06000, 16.
9.08000, 14.
9.10000, 17.
9.12000, 17.
9.14000, 20.
9.16000, 19.
9.18000, 12.
9.20000, 16.
9.22000, 16.
9.24000, 20.
9.26000, 11.
9.28000, 10.
9.30000, 9.
9.32000, 12.
9.34000, 11.
9.36000, 14.
9.38000, 16.
9.40000, 16.
9.42000, 17.
9.44000, 11.
9.46000, 19.
9.48000, 15.
9.50000, 18.
9.52000, 16.
9.54000, 17.
9.56000, 14.
9.58000, 18.
9.60000, 15.
9.62000, 14.
9.64000, 18.
9.66000, 17.
9.68000, 12.
9.70000, 14.
9.72000, 15.
9.74000, 13.
9.76000, 15.
9.78000, 15.
9.80000, 8.
9.82000, 15.
9.84000, 10.
9.86000, 17.
9.88000, 10.
9.90000, 22.
9.92000, 12.
9.94000, 12.
9.96000, 10.
9.98000, 13.
10.00000, 12.
10.02000, 15.
10.04000, 14.
10.06000, 9.
10.08000, 15.
10.10000, 9.
10.12000, 17.
10.14000, 14.
10.16000, 10.
10.18000, 16.
10.20000, 11.
10.22000, 18.
10.24000, 13.
10.26000, 17.
10.28000, 11.
10.30000, 12.
10.32000, 12.
10.34000, 13.
10.36000, 12.
10.38000, 13.
10.40000, 13.
10.42000, 11.
10.44000, 13.
10.46000, 13.
10.48000, 13.
10.50000, 10.
10.52000, 11.
10.54000, 19.
10.56000, 16.
10.58000, 11.
10.60000, 13.
10.62000, 13.
10.64000, 10.
10.66000, 14.
10.68000, 10.
10.70000, 6.
10.72000, 15.
10.74000, 12.
10.76000, 20.
10.78000, 13.
10.80000, 12.
10.82000, 16.
10.84000, 11.
10.86000, 11.
10.88000, 15.
10.90000, 12.
10.92000, 11.
10.94000, 12.
10.96000, 11.
10.98000, 9.
11.00000, 10.
11.02000, 8.
11.04000, 8.
11.06000, 13.
11.08000, 9.
11.10000, 11.
11.12000, 15.
11.14000, 10.
11.16000, 10.
11.18000, 8.
11.20000, 12.
11.22000, 10.
11.24000, 14.
11.26000, 12.
11.28000, 15.
11.30000, 8.
11.32000, 8.
11.34000, 9.
11.36000, 13.
11.38000, 8.
11.40000, 8.
11.42000, 12.
11.44000, 15.
11.46000, 13.
11.48000, 9.
11.50000, 12.
11.52000, 5.
11.54000, 11.
11.56000, 12.
11.58000, 6.
11.60000, 9.
11.62000, 6.
11.64000, 8.
11.66000, 11.
11.68000, 10.
11.70000, 6.
11.72000, 11.
11.74000, 8.
11.76000, 8.
11.78000, 10.
11.80000, 8.
11.82000, 8.
11.84000, 11.
11.86000, 10.
11.88000, 2.
11.90000, 12.
11.92000, 7.
11.94000, 9.
11.96000, 9.
11.98000, 10.
12.00000, 12.
12.02000, 6.
12.04000, 12.
12.06000, 9.
12.08000, 12.
12.10000, 9.
12.12000, 7.
12.14000, 7.
12.16000, 8.
12.18000, 5.
12.20000, 7.
12.22000, 8.
12.24000, 7.
12.26000, 9.
12.28000, 6.
12.30000, 10.
12.32000, 13.
12.34000, 9.
12.36000, 6.
12.38000, 9.
12.40000, 7.
12.42000, 7.
12.44000, 7.
12.46000, 5.
12.48000, 4.
12.50000, 9.
12.52000, 10.
12.54000, 7.
12.56000, 11.
12.58000, 13.
12.60000, 12.
12.62000, 7.
12.64000, 8.
12.66000, 7.
12.68000, 7.
12.70000, 8.
12.72000, 6.
12.74000, 12.
12.76000, 10.
12.78000, 7.
12.80000, 9.
12.82000, 4.
12.84000, 8.
12.86000, 6.
12.88000, 6.
12.90000, 9.
12.92000, 9.
12.94000, 9.
12.96000, 9.
12.98000, 10.
13.00000, 9.
13.02000, 9.
13.04000, 5.
13.06000, 8.
13.08000, 9.
13.10000, 10.
13.12000, 12.
13.14000, 6.
13.16000, 9.
13.18000, 9.
13.20000, 7.
13.22000, 4.
13.24000, 4.
13.26000, 7.
13.28000, 5.
13.30000, 9.
13.32000, 5.
13.34000, 8.
13.36000, 9.
13.38000, 7.
13.40000, 7.
13.42000, 8.
13.44000, 7.
13.46000, 7.
13.48000, 6.
13.50000, 8.
13.52000, 3.
13.54000, 8.
13.56000, 6.
13.58000, 6.
13.60000, 7.
13.62000, 5.
13.64000, 6.
13.66000, 5.
13.68000, 6.
13.70000, 9.
13.72000, 5.
13.74000, 3.
13.76000, 6.
13.78000, 3.
13.80000, 7.
13.82000, 5.
13.84000, 7.
13.86000, 7.
13.88000, 6.
13.90000, 5.
13.92000, 5.
13.94000, 8.
13.96000, 11.
13.98000, 7.
14.00000, 6.
14.02000, 5.
14.04000, 4.
14.06000, 7.
14.08000, 7.
14.10000, 7.
14.12000, 6.
14.14000, 4.
14.16000, 8.
14.18000, 7.
14.20000, 6.
14.22000, 8.
14.24000, 6.
14.26000, 6.
14.28000, 8.
14.30000, 5.
14.32000, 10.
14.34000, 5.
14.36000, 6.
14.38000, 8.
14.40000, 4.
14.42000, 3.
14.44000, 11.
14.46000, 6.
14.48000, 2.
14.50000, 5.
14.52000, 4.
14.54000, 6.
14.56000, 5.
14.58000, 6.
14.60000, 4.
14.62000, 2.
14.64000, 5.
14.66000, 7.
14.68000, 9.
14.70000, 9.
14.72000, 4.
14.74000, 4.
14.76000, 6.
14.78000, 4.
14.80000, 5.
14.82000, 6.
14.84000, 7.
14.86000, 7.
14.88000, 3.
14.90000, 9.
14.92000, 2.
14.94000, 5.
14.96000, 7.
14.98000, 5.
15.00000, 2.
15.02000, 6.
15.04000, 3.
15.06000, 4.
15.08000, 5.
15.10000, 5.
15.12000, 6.
15.14000, 2.
15.16000, 6.
15.18000, 4.
15.20000, 8.
15.22000, 4.
15.24000, 6.
15.26000, 3.
15.28000, 3.
15.30000, 3.
15.32000, 4.
15.34000, 4.
15.36000, 6.
15.38000, 3.
15.40000, 2.
15.42000, 4.
15.44000, 4.
15.46000, 2.
15.48000, 8.
15.50000, 6.
15.52000, 3.
15.54000, 2.
15.56000, 5.
15.58000, 7.
15.60000, 6.
15.62000, 6.
15.64000, 4.
15.66000, 4.
15.68000, 6.
15.70000, 0.
15.72000, 3.
15.74000, 4.
15.76000, 3.
15.78000, 3.
15.80000, 2.
15.82000, 3.
15.84000, 3.
15.86000, 4.
15.88000, 7.
15.90000, 7.
15.92000, 3.
15.94000, 7.
15.96000, 7.
15.98000, 4.
16.00000, 3.
16.02000, 2.
16.04000, 4.
16.06000, 2.
16.08000, 8.
16.10000, 3.
16.12000, 5.
16.14000, 3.
16.16000, 4.
16.18000, 7.
16.20000, 3.
16.22000, 3.
16.24000, 2.
16.26000, 3.
16.28000, 1.
16.30000, 2.
16.32000, 3.
16.34000, 0.
16.36000, 4.
16.38000, 7.
16.40000, 1.
16.42000, 2.
16.44000, 4.
16.46000, 4.
16.48000, 0.
16.50000, 3.
16.52000, 4.
16.54000, 0.
16.56000, 0.
16.58000, 4.
16.60000, 3.
16.62000, 3.
16.64000, 3.
16.66000, 2.
16.68000, 4.
16.70000, 6.
16.72000, 3.
16.74000, 3.
16.76000, 1.
16.78000, 4.
16.80000, 3.
16.82000, 4.
16.84000, 4.
16.86000, 4.
16.88000, 1.
16.90000, 2.
16.92000, 4.
16.94000, 2.
16.96000, 5.
16.98000, 2.
17.00000, 2.
17.02000, 0.
17.04000, 5.
17.06000, 2.
17.08000, 1.
17.10000, 2.
17.12000, 2.
17.14000, 1.
17.16000, 3.
17.18000, 2.
17.20000, 0.
17.22000, 5.
17.24000, 5.
17.26000, 2.
17.28000, 0.
17.30000, 1.
17.32000, 1.
17.34000, 2.
17.36000, 2.
17.38000, 6.
17.40000, 4.
17.42000, 2.
17.44000, 4.
17.46000, 2.
17.48000, 3.
17.50000, 0.
17.52000, 6.
17.54000, 1.
17.56000, 0.
17.58000, 2.
17.60000, 1.
17.62000, 2.
17.64000, 3.
17.66000, 2.
17.68000, 0.
17.70000, 2.
17.72000, 1.
17.74000, 3.
17.76000, 4.
17.78000, 3.
17.80000, 1.
17.82000, 3.
17.84000, 1.
17.86000, 2.
17.88000, 4.
17.90000, 0.
17.92000, 1.
17.94000, 1.
17.96000, 3.
17.98000, 5.
18.00000, 0.
18.02000, 2.
18.04000, 0.
18.06000, 1.
18.08000, 1.
18.10000, 4.
18.12000, 0.
18.14000, 1.
18.16000, 4.
18.18000, 0.
18.20000, 2.
18.22000, 0.
18.24000, 0.
18.26000, 1.
18.28000, 0.
18.30000, 2.
18.32000, 2.
18.34000, 1.
18.36000, 1.
18.38000, 2.
18.40000, 1.
18.42000, 2.
18.44000, 2.
18.46000, 2.
18.48000, 1.
18.50000, 2.
18.52000, 1.
18.54000, 0.
18.56000, 0.
18.58000, 0.
18.60000, 0.
18.62000, 1.
18.64000, 1.
18.66000, 0.
18.68000, 2.
18.70000, 0.
18.72000, 2.
18.74000, 0.
18.76000, 0.
18.78000, 0.
18.80000, 1.
18.82000, 1.
18.84000, 1.
18.86000, 2.
18.88000, 1.
18.90000, 1.
18.92000, 0.
18.94000, 1.
18.96000, 2.
18.98000, 1.
19.00000, 1.
19.02000, 0.
19.04000, 0.
19.06000, 1.
19.08000, 0.
19.10000, 0.
19.12000, 1.
19.14000, 0.
19.16000, 2.
19.18000, 1.
19.20000, 0.
19.22000, 1.
19.24000, 1.
19.26000, 0.
19.28000, 1.
19.30000, 1.
19.32000, 1.
19.34000, 1.
19.36000, 0.
19.38000, 0.
19.40000, 0.
19.42000, 0.
19.44000, 0.
19.46000, 0.
19.48000, 1.
19.50000, 0.
19.52000, 0.
19.54000, 0.
19.56000, 1.
19.58000, 0.
19.60000, 1.
19.62000, 1.
19.64000, 0.
19.66000, 0.
19.68000, 0.
19.70000, 0.
19.72000, 0.
19.74000, 0.
19.76000, 0.
19.78000, 0.
19.80000, 0.
19.82000, 0.
19.84000, 0.
19.86000, 0.
19.88000, 0.
19.90000, 0.
19.92000, 0.
19.94000, 0.
19.96000, 0.
19.98000, 0.
20.00000, 0.
20.02000, 0.
20.04000, 0.
20.06000, 0.
20.08000, 0.
20.10000, 0.
20.12000, 0.
20.14000, 0.
20.16000, 0.
20.18000, 0.
20.20000, 0.
20.22000, 0.
20.24000, 0.
20.26000, 0.
20.27000, 0.
#ENDOFDATA   :