File: data/monolayers/nanoparticles/Ac_CoFe_C_2/edx/data/DD130_9_YF45_3.txt
#FORMAT      : EMSA/MAS Spectral Data File
#VERSION     : 1.0
#TITLE       : Spectrum 1
#DATE        : 04-DEC-2018
#TIME        : 11:05
#OWNER       :
#NPOINTS     : 2048.
#NCOLUMNS    : 1.
#XUNITS      : keV
#YUNITS      : counts
#DATATYPE    : XY
#XPERCHAN    : 0.0100000
#OFFSET      : -0.200000
#SIGNALTYPE  : EDS
#CHOFFSET    : 20.0000
#LIVETIME    : 100
#REALTIME    : 113.001
#BEAMKV      : 20.0000
#PROBECUR    : 0.000000
#MAGCAM      : 1390.00
#XTILTSTGE   : 0.0
#AZIMANGLE   : 0.0
#ELEVANGLE   : 35.0
#XPOSITION mm: 0.0000
#YPOSITION mm: 0.0000
#ZPOSITION mm: 0.0000
##OXINSTPT   : 5
##OXINSTSTROB: 49.08
##OXINSTELEMS: 6,8,11,14,26,27
##OXINSTLABEL: 14, 1.740, Si
##OXINSTLABEL: 26, 6.404, Fe
##OXINSTLABEL: 26, 7.058, Fe
##OXINSTLABEL: 26, 0.705, Fe
##OXINSTLABEL: 26, 0.628, Fe
##OXINSTLABEL: 8, 0.525, O
##OXINSTLABEL: 27, 6.930, Co
##OXINSTLABEL: 27, 7.650, Co
##OXINSTLABEL: 27, 0.776, Co
##OXINSTLABEL: 27, 0.694, Co
##OXINSTLABEL: 27, 0.678, Co
##OXINSTLABEL: 6, 0.277, C
##OXINSTLABEL: 11, 1.041, Na
#SPECTRUM    : Spectral Data Starts Here
-0.20000, 0.
-0.18000, 0.
-0.16000, 0.
-0.14000, 0.
-0.12000, 0.
-0.10000, 0.
-0.08000, 5.
-0.06000, 41.
-0.04000, 409.
-0.02000, 1940.
0.00000, 4624.
0.02000, 5246.
0.04000, 2931.
0.06000, 807.
0.08000, 153.
0.10000, 62.
0.12000, 67.
0.14000, 60.
0.16000, 57.
0.18000, 52.
0.20000, 51.
0.22000, 83.
0.24000, 157.
0.26000, 263.
0.28000, 287.
0.30000, 178.
0.32000, 66.
0.34000, 31.
0.36000, 35.
0.38000, 42.
0.40000, 48.
0.42000, 69.
0.44000, 121.
0.46000, 239.
0.48000, 713.
0.50000, 1524.
0.52000, 2163.
0.54000, 1762.
0.56000, 867.
0.58000, 348.
0.60000, 240.
0.62000, 259.
0.64000, 271.
0.66000, 359.
0.68000, 573.
0.70000, 802.
0.72000, 723.
0.74000, 537.
0.76000, 399.
0.78000, 342.
0.80000, 261.
0.82000, 181.
0.84000, 74.
0.86000, 46.
0.88000, 47.
0.90000, 39.
0.92000, 46.
0.94000, 42.
0.96000, 29.
0.98000, 49.
1.00000, 67.
1.02000, 81.
1.04000, 92.
1.06000, 96.
1.08000, 77.
1.10000, 56.
1.12000, 58.
1.14000, 51.
1.16000, 46.
1.18000, 52.
1.20000, 50.
1.22000, 50.
1.24000, 56.
1.26000, 63.
1.28000, 61.
1.30000, 58.
1.32000, 62.
1.34000, 58.
1.36000, 71.
1.38000, 72.
1.40000, 65.
1.42000, 76.
1.44000, 68.
1.46000, 66.
1.48000, 81.
1.50000, 73.
1.52000, 82.
1.54000, 88.
1.56000, 80.
1.58000, 91.
1.60000, 76.
1.62000, 84.
1.64000, 90.
1.66000, 134.
1.68000, 266.
1.70000, 495.
1.72000, 779.
1.74000, 898.
1.76000, 834.
1.78000, 610.
1.80000, 338.
1.82000, 209.
1.84000, 152.
1.86000, 120.
1.88000, 103.
1.90000, 89.
1.92000, 88.
1.94000, 76.
1.96000, 91.
1.98000, 82.
2.00000, 74.
2.02000, 85.
2.04000, 85.
2.06000, 78.
2.08000, 87.
2.10000, 83.
2.12000, 84.
2.14000, 80.
2.16000, 79.
2.18000, 79.
2.20000, 84.
2.22000, 82.
2.24000, 87.
2.26000, 73.
2.28000, 81.
2.30000, 80.
2.32000, 88.
2.34000, 91.
2.36000, 90.
2.38000, 85.
2.40000, 88.
2.42000, 87.
2.44000, 83.
2.46000, 78.
2.48000, 85.
2.50000, 80.
2.52000, 94.
2.54000, 83.
2.56000, 82.
2.58000, 91.
2.60000, 87.
2.62000, 91.
2.64000, 84.
2.66000, 84.
2.68000, 86.
2.70000, 87.
2.72000, 90.
2.74000, 78.
2.76000, 80.
2.78000, 78.
2.80000, 83.
2.82000, 79.
2.84000, 86.
2.86000, 79.
2.88000, 83.
2.90000, 75.
2.92000, 76.
2.94000, 85.
2.96000, 71.
2.98000, 69.
3.00000, 63.
3.02000, 63.
3.04000, 69.
3.06000, 72.
3.08000, 66.
3.10000, 68.
3.12000, 71.
3.14000, 79.
3.16000, 62.
3.18000, 67.
3.20000, 70.
3.22000, 78.
3.24000, 70.
3.26000, 78.
3.28000, 75.
3.30000, 66.
3.32000, 75.
3.34000, 71.
3.36000, 62.
3.38000, 71.
3.40000, 65.
3.42000, 63.
3.44000, 66.
3.46000, 68.
3.48000, 65.
3.50000, 63.
3.52000, 68.
3.54000, 66.
3.56000, 64.
3.58000, 60.
3.60000, 56.
3.62000, 69.
3.64000, 64.
3.66000, 70.
3.68000, 59.
3.70000, 66.
3.72000, 63.
3.74000, 55.
3.76000, 57.
3.78000, 67.
3.80000, 63.
3.82000, 57.
3.84000, 69.
3.86000, 66.
3.88000, 59.
3.90000, 58.
3.92000, 59.
3.94000, 50.
3.96000, 51.
3.98000, 57.
4.00000, 55.
4.02000, 61.
4.04000, 60.
4.06000, 48.
4.08000, 45.
4.10000, 58.
4.12000, 53.
4.14000, 49.
4.16000, 58.
4.18000, 55.
4.20000, 44.
4.22000, 50.
4.24000, 44.
4.26000, 41.
4.28000, 58.
4.30000, 48.
4.32000, 44.
4.34000, 54.
4.36000, 52.
4.38000, 54.
4.40000, 55.
4.42000, 48.
4.44000, 51.
4.46000, 46.
4.48000, 43.
4.50000, 52.
4.52000, 43.
4.54000, 58.
4.56000, 53.
4.58000, 45.
4.60000, 59.
4.62000, 59.
4.64000, 48.
4.66000, 53.
4.68000, 41.
4.70000, 53.
4.72000, 47.
4.74000, 53.
4.76000, 43.
4.78000, 43.
4.80000, 47.
4.82000, 47.
4.84000, 49.
4.86000, 42.
4.88000, 36.
4.90000, 38.
4.92000, 47.
4.94000, 49.
4.96000, 54.
4.98000, 45.
5.00000, 36.
5.02000, 49.
5.04000, 40.
5.06000, 37.
5.08000, 45.
5.10000, 39.
5.12000, 41.
5.14000, 41.
5.16000, 35.
5.18000, 36.
5.20000, 35.
5.22000, 37.
5.24000, 39.
5.26000, 49.
5.28000, 41.
5.30000, 34.
5.32000, 36.
5.34000, 43.
5.36000, 51.
5.38000, 43.
5.40000, 42.
5.42000, 34.
5.44000, 37.
5.46000, 45.
5.48000, 44.
5.50000, 33.
5.52000, 42.
5.54000, 45.
5.56000, 40.
5.58000, 32.
5.60000, 31.
5.62000, 34.
5.64000, 34.
5.66000, 36.
5.68000, 36.
5.70000, 41.
5.72000, 44.
5.74000, 27.
5.76000, 44.
5.78000, 33.
5.80000, 34.
5.82000, 29.
5.84000, 33.
5.86000, 43.
5.88000, 38.
5.90000, 39.
5.92000, 40.
5.94000, 31.
5.96000, 40.
5.98000, 38.
6.00000, 27.
6.02000, 35.
6.04000, 45.
6.06000, 44.
6.08000, 32.
6.10000, 36.
6.12000, 30.
6.14000, 42.
6.16000, 41.
6.18000, 38.
6.20000, 47.
6.22000, 45.
6.24000, 71.
6.26000, 120.
6.28000, 213.
6.30000, 401.
6.32000, 630.
6.34000, 967.
6.36000, 1236.
6.38000, 1409.
6.40000, 1568.
6.42000, 1556.
6.44000, 1246.
6.46000, 922.
6.48000, 651.
6.50000, 367.
6.52000, 216.
6.54000, 117.
6.56000, 62.
6.58000, 41.
6.60000, 31.
6.62000, 38.
6.64000, 36.
6.66000, 33.
6.68000, 28.
6.70000, 25.
6.72000, 19.
6.74000, 42.
6.76000, 39.
6.78000, 50.
6.80000, 90.
6.82000, 119.
6.84000, 201.
6.86000, 304.
6.88000, 405.
6.90000, 449.
6.92000, 515.
6.94000, 557.
6.96000, 568.
6.98000, 458.
7.00000, 383.
7.02000, 354.
7.04000, 292.
7.06000, 230.
7.08000, 242.
7.10000, 179.
7.12000, 124.
7.14000, 94.
7.16000, 70.
7.18000, 50.
7.20000, 32.
7.22000, 27.
7.24000, 24.
7.26000, 34.
7.28000, 27.
7.30000, 25.
7.32000, 27.
7.34000, 19.
7.36000, 26.
7.38000, 28.
7.40000, 25.
7.42000, 29.
7.44000, 20.
7.46000, 26.
7.48000, 19.
7.50000, 30.
7.52000, 35.
7.54000, 28.
7.56000, 40.
7.58000, 53.
7.60000, 73.
7.62000, 85.
7.64000, 71.
7.66000, 78.
7.68000, 72.
7.70000, 60.
7.72000, 47.
7.74000, 39.
7.76000, 26.
7.78000, 21.
7.80000, 16.
7.82000, 19.
7.84000, 21.
7.86000, 13.
7.88000, 15.
7.90000, 21.
7.92000, 18.
7.94000, 13.
7.96000, 21.
7.98000, 15.
8.00000, 22.
8.02000, 18.
8.04000, 15.
8.06000, 17.
8.08000, 20.
8.10000, 18.
8.12000, 16.
8.14000, 19.
8.16000, 21.
8.18000, 11.
8.20000, 19.
8.22000, 22.
8.24000, 18.
8.26000, 22.
8.28000, 21.
8.30000, 16.
8.32000, 14.
8.34000, 18.
8.36000, 22.
8.38000, 13.
8.40000, 22.
8.42000, 18.
8.44000, 14.
8.46000, 16.
8.48000, 16.
8.50000, 28.
8.52000, 18.
8.54000, 18.
8.56000, 17.
8.58000, 16.
8.60000, 21.
8.62000, 16.
8.64000, 15.
8.66000, 10.
8.68000, 21.
8.70000, 16.
8.72000, 10.
8.74000, 14.
8.76000, 14.
8.78000, 20.
8.80000, 21.
8.82000, 13.
8.84000, 14.
8.86000, 16.
8.88000, 16.
8.90000, 20.
8.92000, 20.
8.94000, 13.
8.96000, 17.
8.98000, 10.
9.00000, 20.
9.02000, 21.
9.04000, 18.
9.06000, 16.
9.08000, 16.
9.10000, 15.
9.12000, 18.
9.14000, 19.
9.16000, 14.
9.18000, 15.
9.20000, 23.
9.22000, 13.
9.24000, 17.
9.26000, 16.
9.28000, 16.
9.30000, 15.
9.32000, 15.
9.34000, 11.
9.36000, 17.
9.38000, 14.
9.40000, 15.
9.42000, 13.
9.44000, 12.
9.46000, 13.
9.48000, 22.
9.50000, 12.
9.52000, 13.
9.54000, 20.
9.56000, 19.
9.58000, 16.
9.60000, 12.
9.62000, 16.
9.64000, 16.
9.66000, 14.
9.68000, 9.
9.70000, 17.
9.72000, 15.
9.74000, 8.
9.76000, 15.
9.78000, 11.
9.80000, 10.
9.82000, 11.
9.84000, 13.
9.86000, 19.
9.88000, 10.
9.90000, 12.
9.92000, 12.
9.94000, 14.
9.96000, 16.
9.98000, 9.
10.00000, 14.
10.02000, 11.
10.04000, 10.
10.06000, 10.
10.08000, 16.
10.10000, 9.
10.12000, 14.
10.14000, 15.
10.16000, 16.
10.18000, 15.
10.20000, 15.
10.22000, 12.
10.24000, 13.
10.26000, 15.
10.28000, 10.
10.30000, 17.
10.32000, 13.
10.34000, 9.
10.36000, 10.
10.38000, 16.
10.40000, 11.
10.42000, 12.
10.44000, 17.
10.46000, 11.
10.48000, 12.
10.50000, 15.
10.52000, 9.
10.54000, 13.
10.56000, 14.
10.58000, 14.
10.60000, 7.
10.62000, 15.
10.64000, 8.
10.66000, 16.
10.68000, 13.
10.70000, 8.
10.72000, 16.
10.74000, 9.
10.76000, 13.
10.78000, 15.
10.80000, 7.
10.82000, 14.
10.84000, 11.
10.86000, 15.
10.88000, 12.
10.90000, 14.
10.92000, 15.
10.94000, 11.
10.96000, 9.
10.98000, 9.
11.00000, 12.
11.02000, 10.
11.04000, 16.
11.06000, 11.
11.08000, 15.
11.10000, 12.
11.12000, 13.
11.14000, 11.
11.16000, 9.
11.18000, 10.
11.20000, 12.
11.22000, 12.
11.24000, 7.
11.26000, 10.
11.28000, 9.
11.30000, 10.
11.32000, 6.
11.34000, 9.
11.36000, 13.
11.38000, 9.
11.40000, 12.
11.42000, 14.
11.44000, 10.
11.46000, 9.
11.48000, 11.
11.50000, 11.
11.52000, 10.
11.54000, 9.
11.56000, 8.
11.58000, 12.
11.60000, 10.
11.62000, 8.
11.64000, 8.
11.66000, 9.
11.68000, 7.
11.70000, 10.
11.72000, 16.
11.74000, 12.
11.76000, 15.
11.78000, 9.
11.80000, 11.
11.82000, 9.
11.84000, 9.
11.86000, 11.
11.88000, 13.
11.90000, 9.
11.92000, 11.
11.94000, 9.
11.96000, 14.
11.98000, 12.
12.00000, 10.
12.02000, 8.
12.04000, 10.
12.06000, 7.
12.08000, 10.
12.10000, 8.
12.12000, 11.
12.14000, 11.
12.16000, 9.
12.18000, 7.
12.20000, 8.
12.22000, 6.
12.24000, 7.
12.26000, 8.
12.28000, 8.
12.30000, 12.
12.32000, 9.
12.34000, 9.
12.36000, 7.
12.38000, 8.
12.40000, 11.
12.42000, 9.
12.44000, 5.
12.46000, 9.
12.48000, 8.
12.50000, 10.
12.52000, 8.
12.54000, 9.
12.56000, 8.
12.58000, 9.
12.60000, 8.
12.62000, 9.
12.64000, 8.
12.66000, 7.
12.68000, 7.
12.70000, 10.
12.72000, 5.
12.74000, 7.
12.76000, 6.
12.78000, 9.
12.80000, 8.
12.82000, 12.
12.84000, 9.
12.86000, 9.
12.88000, 6.
12.90000, 9.
12.92000, 9.
12.94000, 8.
12.96000, 10.
12.98000, 5.
13.00000, 6.
13.02000, 7.
13.04000, 8.
13.06000, 7.
13.08000, 6.
13.10000, 7.
13.12000, 10.
13.14000, 6.
13.16000, 7.
13.18000, 6.
13.20000, 7.
13.22000, 10.
13.24000, 8.
13.26000, 10.
13.28000, 10.
13.30000, 6.
13.32000, 8.
13.34000, 7.
13.36000, 6.
13.38000, 6.
13.40000, 9.
13.42000, 8.
13.44000, 4.
13.46000, 11.
13.48000, 8.
13.50000, 7.
13.52000, 6.
13.54000, 7.
13.56000, 8.
13.58000, 6.
13.60000, 3.
13.62000, 6.
13.64000, 6.
13.66000, 6.
13.68000, 5.
13.70000, 9.
13.72000, 4.
13.74000, 7.
13.76000, 6.
13.78000, 8.
13.80000, 6.
13.82000, 3.
13.84000, 7.
13.86000, 8.
13.88000, 7.
13.90000, 7.
13.92000, 6.
13.94000, 5.
13.96000, 5.
13.98000, 5.
14.00000, 4.
14.02000, 5.
14.04000, 4.
14.06000, 7.
14.08000, 5.
14.10000, 10.
14.12000, 5.
14.14000, 3.
14.16000, 5.
14.18000, 5.
14.20000, 7.
14.22000, 8.
14.24000, 5.
14.26000, 4.
14.28000, 3.
14.30000, 4.
14.32000, 10.
14.34000, 8.
14.36000, 6.
14.38000, 7.
14.40000, 3.
14.42000, 8.
14.44000, 3.
14.46000, 7.
14.48000, 10.
14.50000, 4.
14.52000, 8.
14.54000, 9.
14.56000, 5.
14.58000, 3.
14.60000, 5.
14.62000, 6.
14.64000, 7.
14.66000, 4.
14.68000, 2.
14.70000, 3.
14.72000, 2.
14.74000, 3.
14.76000, 8.
14.78000, 5.
14.80000, 5.
14.82000, 3.
14.84000, 6.
14.86000, 4.
14.88000, 7.
14.90000, 2.
14.92000, 8.
14.94000, 6.
14.96000, 5.
14.98000, 1.
15.00000, 5.
15.02000, 3.
15.04000, 7.
15.06000, 6.
15.08000, 4.
15.10000, 2.
15.12000, 5.
15.14000, 2.
15.16000, 8.
15.18000, 4.
15.20000, 2.
15.22000, 3.
15.24000, 2.
15.26000, 3.
15.28000, 3.
15.30000, 6.
15.32000, 3.
15.34000, 5.
15.36000, 5.
15.38000, 2.
15.40000, 3.
15.42000, 5.
15.44000, 5.
15.46000, 2.
15.48000, 6.
15.50000, 2.
15.52000, 2.
15.54000, 7.
15.56000, 3.
15.58000, 3.
15.60000, 2.
15.62000, 3.
15.64000, 3.
15.66000, 5.
15.68000, 3.
15.70000, 1.
15.72000, 5.
15.74000, 3.
15.76000, 2.
15.78000, 3.
15.80000, 4.
15.82000, 4.
15.84000, 1.
15.86000, 5.
15.88000, 5.
15.90000, 5.
15.92000, 5.
15.94000, 3.
15.96000, 7.
15.98000, 5.
16.00000, 2.
16.02000, 7.
16.04000, 5.
16.06000, 6.
16.08000, 6.
16.10000, 3.
16.12000, 3.
16.14000, 2.
16.16000, 0.
16.18000, 5.
16.20000, 1.
16.22000, 5.
16.24000, 5.
16.26000, 5.
16.28000, 2.
16.30000, 4.
16.32000, 5.
16.34000, 8.
16.36000, 1.
16.38000, 0.
16.40000, 4.
16.42000, 5.
16.44000, 3.
16.46000, 2.
16.48000, 0.
16.50000, 7.
16.52000, 2.
16.54000, 1.
16.56000, 7.
16.58000, 5.
16.60000, 2.
16.62000, 4.
16.64000, 3.
16.66000, 1.
16.68000, 6.
16.70000, 7.
16.72000, 6.
16.74000, 0.
16.76000, 1.
16.78000, 3.
16.80000, 3.
16.82000, 4.
16.84000, 3.
16.86000, 2.
16.88000, 0.
16.90000, 1.
16.92000, 5.
16.94000, 1.
16.96000, 3.
16.98000, 5.
17.00000, 2.
17.02000, 2.
17.04000, 4.
17.06000, 2.
17.08000, 3.
17.10000, 3.
17.12000, 3.
17.14000, 1.
17.16000, 3.
17.18000, 2.
17.20000, 2.
17.22000, 2.
17.24000, 6.
17.26000, 2.
17.28000, 7.
17.30000, 1.
17.32000, 1.
17.34000, 3.
17.36000, 0.
17.38000, 1.
17.40000, 1.
17.42000, 3.
17.44000, 1.
17.46000, 3.
17.48000, 2.
17.50000, 1.
17.52000, 1.
17.54000, 0.
17.56000, 0.
17.58000, 1.
17.60000, 3.
17.62000, 1.
17.64000, 4.
17.66000, 1.
17.68000, 3.
17.70000, 0.
17.72000, 3.
17.74000, 1.
17.76000, 3.
17.78000, 1.
17.80000, 2.
17.82000, 1.
17.84000, 1.
17.86000, 1.
17.88000, 0.
17.90000, 1.
17.92000, 5.
17.94000, 1.
17.96000, 1.
17.98000, 1.
18.00000, 4.
18.02000, 1.
18.04000, 2.
18.06000, 1.
18.08000, 0.
18.10000, 1.
18.12000, 0.
18.14000, 1.
18.16000, 2.
18.18000, 0.
18.20000, 0.
18.22000, 0.
18.24000, 0.
18.26000, 0.
18.28000, 4.
18.30000, 1.
18.32000, 4.
18.34000, 2.
18.36000, 2.
18.38000, 1.
18.40000, 3.
18.42000, 3.
18.44000, 0.
18.46000, 1.
18.48000, 0.
18.50000, 1.
18.52000, 1.
18.54000, 0.
18.56000, 0.
18.58000, 2.
18.60000, 3.
18.62000, 1.
18.64000, 2.
18.66000, 2.
18.68000, 1.
18.70000, 0.
18.72000, 1.
18.74000, 2.
18.76000, 0.
18.78000, 0.
18.80000, 0.
18.82000, 0.
18.84000, 0.
18.86000, 0.
18.88000, 1.
18.90000, 2.
18.92000, 1.
18.94000, 1.
18.96000, 1.
18.98000, 1.
19.00000, 0.
19.02000, 0.
19.04000, 1.
19.06000, 0.
19.08000, 2.
19.10000, 0.
19.12000, 1.
19.14000, 0.
19.16000, 1.
19.18000, 2.
19.20000, 1.
19.22000, 0.
19.24000, 0.
19.26000, 0.
19.28000, 2.
19.30000, 0.
19.32000, 0.
19.34000, 1.
19.36000, 1.
19.38000, 0.
19.40000, 1.
19.42000, 0.
19.44000, 1.
19.46000, 0.
19.48000, 0.
19.50000, 0.
19.52000, 0.
19.54000, 0.
19.56000, 1.
19.58000, 0.
19.60000, 0.
19.62000, 0.
19.64000, 1.
19.66000, 0.
19.68000, 0.
19.70000, 0.
19.72000, 0.
19.74000, 0.
19.76000, 0.
19.78000, 0.
19.80000, 0.
19.82000, 0.
19.84000, 0.
19.86000, 0.
19.88000, 0.
19.90000, 0.
19.92000, 0.
19.94000, 0.
19.96000, 0.
19.98000, 0.
20.00000, 0.
20.02000, 0.
20.04000, 0.
20.06000, 0.
20.08000, 0.
20.10000, 0.
20.12000, 0.
20.14000, 0.
20.16000, 0.
20.18000, 0.
20.20000, 0.
20.22000, 0.
20.24000, 0.
20.26000, 0.
20.27000, 0.
#ENDOFDATA   :