File: data/monolayers/nanoparticles/Ac_CoFe_C_2/edx/data/DD130_9_YF45_4.txt
#FORMAT      : EMSA/MAS Spectral Data File
#VERSION     : 1.0
#TITLE       : Spectrum 1
#DATE        : 04-DEC-2018
#TIME        : 11:08
#OWNER       :
#NPOINTS     : 2048.
#NCOLUMNS    : 1.
#XUNITS      : keV
#YUNITS      : counts
#DATATYPE    : XY
#XPERCHAN    : 0.0100000
#OFFSET      : -0.200000
#SIGNALTYPE  : EDS
#CHOFFSET    : 20.0000
#LIVETIME    : 100
#REALTIME    : 112.364
#BEAMKV      : 20.0000
#PROBECUR    : 0.000000
#MAGCAM      : 1390.00
#XTILTSTGE   : 0.0
#AZIMANGLE   : 0.0
#ELEVANGLE   : 35.0
#XPOSITION mm: 0.0000
#YPOSITION mm: 0.0000
#ZPOSITION mm: 0.0000
##OXINSTPT   : 5
##OXINSTSTROB: 49.05
##OXINSTELEMS: 6,8,11,14,26,27
##OXINSTLABEL: 26, 6.404, Fe
##OXINSTLABEL: 26, 7.058, Fe
##OXINSTLABEL: 26, 0.705, Fe
##OXINSTLABEL: 26, 0.628, Fe
##OXINSTLABEL: 14, 1.740, Si
##OXINSTLABEL: 8, 0.525, O
##OXINSTLABEL: 27, 6.930, Co
##OXINSTLABEL: 27, 7.650, Co
##OXINSTLABEL: 27, 0.776, Co
##OXINSTLABEL: 27, 0.694, Co
##OXINSTLABEL: 27, 0.678, Co
##OXINSTLABEL: 6, 0.277, C
##OXINSTLABEL: 11, 1.041, Na
#SPECTRUM    : Spectral Data Starts Here
-0.20000, 0.
-0.18000, 0.
-0.16000, 0.
-0.14000, 0.
-0.12000, 1.
-0.10000, 2.
-0.08000, 1.
-0.06000, 31.
-0.04000, 399.
-0.02000, 1991.
0.00000, 4744.
0.02000, 5293.
0.04000, 2861.
0.06000, 778.
0.08000, 115.
0.10000, 52.
0.12000, 55.
0.14000, 52.
0.16000, 41.
0.18000, 40.
0.20000, 39.
0.22000, 69.
0.24000, 124.
0.26000, 195.
0.28000, 207.
0.30000, 132.
0.32000, 57.
0.34000, 32.
0.36000, 35.
0.38000, 34.
0.40000, 48.
0.42000, 64.
0.44000, 92.
0.46000, 234.
0.48000, 677.
0.50000, 1445.
0.52000, 2035.
0.54000, 1624.
0.56000, 836.
0.58000, 333.
0.60000, 213.
0.62000, 214.
0.64000, 240.
0.66000, 318.
0.68000, 510.
0.70000, 682.
0.72000, 654.
0.74000, 454.
0.76000, 308.
0.78000, 273.
0.80000, 214.
0.82000, 143.
0.84000, 69.
0.86000, 40.
0.88000, 36.
0.90000, 29.
0.92000, 20.
0.94000, 32.
0.96000, 34.
0.98000, 35.
1.00000, 59.
1.02000, 72.
1.04000, 76.
1.06000, 60.
1.08000, 74.
1.10000, 59.
1.12000, 46.
1.14000, 52.
1.16000, 42.
1.18000, 54.
1.20000, 39.
1.22000, 50.
1.24000, 50.
1.26000, 51.
1.28000, 51.
1.30000, 60.
1.32000, 48.
1.34000, 63.
1.36000, 59.
1.38000, 72.
1.40000, 60.
1.42000, 60.
1.44000, 66.
1.46000, 83.
1.48000, 70.
1.50000, 67.
1.52000, 70.
1.54000, 75.
1.56000, 62.
1.58000, 82.
1.60000, 69.
1.62000, 72.
1.64000, 82.
1.66000, 85.
1.68000, 109.
1.70000, 143.
1.72000, 176.
1.74000, 190.
1.76000, 179.
1.78000, 150.
1.80000, 109.
1.82000, 107.
1.84000, 106.
1.86000, 85.
1.88000, 83.
1.90000, 78.
1.92000, 90.
1.94000, 79.
1.96000, 81.
1.98000, 93.
2.00000, 80.
2.02000, 81.
2.04000, 85.
2.06000, 75.
2.08000, 83.
2.10000, 81.
2.12000, 86.
2.14000, 89.
2.16000, 81.
2.18000, 76.
2.20000, 91.
2.22000, 97.
2.24000, 87.
2.26000, 88.
2.28000, 83.
2.30000, 95.
2.32000, 89.
2.34000, 83.
2.36000, 85.
2.38000, 86.
2.40000, 89.
2.42000, 86.
2.44000, 91.
2.46000, 78.
2.48000, 87.
2.50000, 78.
2.52000, 89.
2.54000, 88.
2.56000, 76.
2.58000, 75.
2.60000, 96.
2.62000, 85.
2.64000, 92.
2.66000, 90.
2.68000, 95.
2.70000, 84.
2.72000, 88.
2.74000, 85.
2.76000, 83.
2.78000, 88.
2.80000, 87.
2.82000, 85.
2.84000, 69.
2.86000, 82.
2.88000, 75.
2.90000, 68.
2.92000, 92.
2.94000, 75.
2.96000, 81.
2.98000, 70.
3.00000, 76.
3.02000, 76.
3.04000, 67.
3.06000, 61.
3.08000, 79.
3.10000, 73.
3.12000, 88.
3.14000, 69.
3.16000, 74.
3.18000, 73.
3.20000, 71.
3.22000, 71.
3.24000, 70.
3.26000, 77.
3.28000, 72.
3.30000, 73.
3.32000, 70.
3.34000, 69.
3.36000, 71.
3.38000, 65.
3.40000, 75.
3.42000, 69.
3.44000, 76.
3.46000, 72.
3.48000, 72.
3.50000, 69.
3.52000, 73.
3.54000, 76.
3.56000, 68.
3.58000, 66.
3.60000, 56.
3.62000, 67.
3.64000, 67.
3.66000, 65.
3.68000, 62.
3.70000, 72.
3.72000, 73.
3.74000, 69.
3.76000, 51.
3.78000, 68.
3.80000, 68.
3.82000, 57.
3.84000, 60.
3.86000, 55.
3.88000, 58.
3.90000, 63.
3.92000, 56.
3.94000, 59.
3.96000, 61.
3.98000, 61.
4.00000, 53.
4.02000, 55.
4.04000, 51.
4.06000, 54.
4.08000, 59.
4.10000, 64.
4.12000, 58.
4.14000, 61.
4.16000, 57.
4.18000, 49.
4.20000, 60.
4.22000, 49.
4.24000, 50.
4.26000, 58.
4.28000, 45.
4.30000, 54.
4.32000, 50.
4.34000, 55.
4.36000, 51.
4.38000, 55.
4.40000, 52.
4.42000, 50.
4.44000, 61.
4.46000, 53.
4.48000, 54.
4.50000, 44.
4.52000, 57.
4.54000, 58.
4.56000, 53.
4.58000, 47.
4.60000, 56.
4.62000, 56.
4.64000, 43.
4.66000, 70.
4.68000, 49.
4.70000, 55.
4.72000, 44.
4.74000, 50.
4.76000, 43.
4.78000, 44.
4.80000, 44.
4.82000, 49.
4.84000, 51.
4.86000, 44.
4.88000, 41.
4.90000, 36.
4.92000, 37.
4.94000, 38.
4.96000, 45.
4.98000, 38.
5.00000, 51.
5.02000, 45.
5.04000, 49.
5.06000, 51.
5.08000, 45.
5.10000, 48.
5.12000, 38.
5.14000, 48.
5.16000, 45.
5.18000, 55.
5.20000, 59.
5.22000, 50.
5.24000, 48.
5.26000, 45.
5.28000, 47.
5.30000, 46.
5.32000, 41.
5.34000, 40.
5.36000, 42.
5.38000, 28.
5.40000, 43.
5.42000, 36.
5.44000, 44.
5.46000, 35.
5.48000, 40.
5.50000, 38.
5.52000, 38.
5.54000, 32.
5.56000, 42.
5.58000, 38.
5.60000, 37.
5.62000, 45.
5.64000, 42.
5.66000, 40.
5.68000, 36.
5.70000, 36.
5.72000, 33.
5.74000, 45.
5.76000, 42.
5.78000, 37.
5.80000, 53.
5.82000, 36.
5.84000, 36.
5.86000, 31.
5.88000, 33.
5.90000, 37.
5.92000, 37.
5.94000, 42.
5.96000, 40.
5.98000, 35.
6.00000, 35.
6.02000, 32.
6.04000, 44.
6.06000, 41.
6.08000, 44.
6.10000, 35.
6.12000, 42.
6.14000, 38.
6.16000, 35.
6.18000, 47.
6.20000, 44.
6.22000, 56.
6.24000, 83.
6.26000, 114.
6.28000, 228.
6.30000, 359.
6.32000, 674.
6.34000, 1001.
6.36000, 1329.
6.38000, 1616.
6.40000, 1733.
6.42000, 1623.
6.44000, 1372.
6.46000, 1003.
6.48000, 697.
6.50000, 420.
6.52000, 238.
6.54000, 145.
6.56000, 55.
6.58000, 60.
6.60000, 37.
6.62000, 37.
6.64000, 48.
6.66000, 34.
6.68000, 33.
6.70000, 30.
6.72000, 35.
6.74000, 47.
6.76000, 40.
6.78000, 64.
6.80000, 84.
6.82000, 147.
6.84000, 245.
6.86000, 296.
6.88000, 423.
6.90000, 530.
6.92000, 586.
6.94000, 595.
6.96000, 538.
6.98000, 464.
7.00000, 428.
7.02000, 376.
7.04000, 306.
7.06000, 270.
7.08000, 229.
7.10000, 209.
7.12000, 172.
7.14000, 101.
7.16000, 71.
7.18000, 50.
7.20000, 38.
7.22000, 20.
7.24000, 35.
7.26000, 19.
7.28000, 25.
7.30000, 20.
7.32000, 24.
7.34000, 18.
7.36000, 15.
7.38000, 23.
7.40000, 25.
7.42000, 20.
7.44000, 17.
7.46000, 23.
7.48000, 33.
7.50000, 28.
7.52000, 33.
7.54000, 37.
7.56000, 58.
7.58000, 63.
7.60000, 75.
7.62000, 77.
7.64000, 86.
7.66000, 79.
7.68000, 76.
7.70000, 62.
7.72000, 50.
7.74000, 55.
7.76000, 32.
7.78000, 29.
7.80000, 25.
7.82000, 24.
7.84000, 29.
7.86000, 25.
7.88000, 17.
7.90000, 23.
7.92000, 25.
7.94000, 17.
7.96000, 20.
7.98000, 25.
8.00000, 23.
8.02000, 21.
8.04000, 22.
8.06000, 12.
8.08000, 18.
8.10000, 14.
8.12000, 17.
8.14000, 16.
8.16000, 22.
8.18000, 19.
8.20000, 14.
8.22000, 22.
8.24000, 21.
8.26000, 12.
8.28000, 22.
8.30000, 15.
8.32000, 13.
8.34000, 27.
8.36000, 16.
8.38000, 19.
8.40000, 21.
8.42000, 15.
8.44000, 17.
8.46000, 15.
8.48000, 13.
8.50000, 17.
8.52000, 16.
8.54000, 19.
8.56000, 10.
8.58000, 20.
8.60000, 16.
8.62000, 20.
8.64000, 28.
8.66000, 15.
8.68000, 21.
8.70000, 12.
8.72000, 18.
8.74000, 18.
8.76000, 19.
8.78000, 13.
8.80000, 16.
8.82000, 16.
8.84000, 16.
8.86000, 17.
8.88000, 8.
8.90000, 17.
8.92000, 9.
8.94000, 15.
8.96000, 17.
8.98000, 15.
9.00000, 18.
9.02000, 13.
9.04000, 14.
9.06000, 21.
9.08000, 11.
9.10000, 18.
9.12000, 21.
9.14000, 11.
9.16000, 17.
9.18000, 15.
9.20000, 19.
9.22000, 14.
9.24000, 13.
9.26000, 14.
9.28000, 18.
9.30000, 15.
9.32000, 12.
9.34000, 16.
9.36000, 15.
9.38000, 20.
9.40000, 20.
9.42000, 10.
9.44000, 16.
9.46000, 15.
9.48000, 20.
9.50000, 17.
9.52000, 15.
9.54000, 10.
9.56000, 15.
9.58000, 9.
9.60000, 14.
9.62000, 10.
9.64000, 10.
9.66000, 7.
9.68000, 13.
9.70000, 15.
9.72000, 13.
9.74000, 16.
9.76000, 12.
9.78000, 17.
9.80000, 12.
9.82000, 13.
9.84000, 13.
9.86000, 15.
9.88000, 11.
9.90000, 16.
9.92000, 19.
9.94000, 13.
9.96000, 14.
9.98000, 16.
10.00000, 17.
10.02000, 11.
10.04000, 17.
10.06000, 18.
10.08000, 15.
10.10000, 12.
10.12000, 13.
10.14000, 16.
10.16000, 12.
10.18000, 12.
10.20000, 12.
10.22000, 17.
10.24000, 15.
10.26000, 19.
10.28000, 10.
10.30000, 16.
10.32000, 18.
10.34000, 9.
10.36000, 8.
10.38000, 13.
10.40000, 12.
10.42000, 13.
10.44000, 14.
10.46000, 16.
10.48000, 9.
10.50000, 11.
10.52000, 11.
10.54000, 6.
10.56000, 16.
10.58000, 5.
10.60000, 18.
10.62000, 8.
10.64000, 14.
10.66000, 19.
10.68000, 8.
10.70000, 14.
10.72000, 8.
10.74000, 10.
10.76000, 12.
10.78000, 9.
10.80000, 13.
10.82000, 11.
10.84000, 16.
10.86000, 13.
10.88000, 8.
10.90000, 15.
10.92000, 13.
10.94000, 15.
10.96000, 17.
10.98000, 10.
11.00000, 7.
11.02000, 10.
11.04000, 8.
11.06000, 12.
11.08000, 10.
11.10000, 13.
11.12000, 13.
11.14000, 8.
11.16000, 11.
11.18000, 16.
11.20000, 10.
11.22000, 12.
11.24000, 12.
11.26000, 8.
11.28000, 15.
11.30000, 7.
11.32000, 8.
11.34000, 18.
11.36000, 10.
11.38000, 13.
11.40000, 12.
11.42000, 13.
11.44000, 9.
11.46000, 7.
11.48000, 7.
11.50000, 12.
11.52000, 15.
11.54000, 10.
11.56000, 12.
11.58000, 6.
11.60000, 10.
11.62000, 8.
11.64000, 10.
11.66000, 11.
11.68000, 13.
11.70000, 10.
11.72000, 13.
11.74000, 12.
11.76000, 8.
11.78000, 9.
11.80000, 9.
11.82000, 10.
11.84000, 13.
11.86000, 16.
11.88000, 12.
11.90000, 10.
11.92000, 11.
11.94000, 9.
11.96000, 10.
11.98000, 6.
12.00000, 8.
12.02000, 13.
12.04000, 11.
12.06000, 9.
12.08000, 14.
12.10000, 13.
12.12000, 7.
12.14000, 9.
12.16000, 9.
12.18000, 9.
12.20000, 10.
12.22000, 9.
12.24000, 10.
12.26000, 6.
12.28000, 8.
12.30000, 7.
12.32000, 7.
12.34000, 8.
12.36000, 8.
12.38000, 13.
12.40000, 7.
12.42000, 12.
12.44000, 8.
12.46000, 10.
12.48000, 9.
12.50000, 10.
12.52000, 8.
12.54000, 10.
12.56000, 11.
12.58000, 8.
12.60000, 12.
12.62000, 4.
12.64000, 12.
12.66000, 6.
12.68000, 6.
12.70000, 6.
12.72000, 5.
12.74000, 7.
12.76000, 8.
12.78000, 7.
12.80000, 11.
12.82000, 7.
12.84000, 13.
12.86000, 6.
12.88000, 9.
12.90000, 9.
12.92000, 8.
12.94000, 7.
12.96000, 8.
12.98000, 5.
13.00000, 8.
13.02000, 8.
13.04000, 10.
13.06000, 5.
13.08000, 8.
13.10000, 9.
13.12000, 6.
13.14000, 6.
13.16000, 6.
13.18000, 9.
13.20000, 7.
13.22000, 9.
13.24000, 10.
13.26000, 6.
13.28000, 8.
13.30000, 8.
13.32000, 5.
13.34000, 10.
13.36000, 7.
13.38000, 11.
13.40000, 5.
13.42000, 6.
13.44000, 9.
13.46000, 7.
13.48000, 10.
13.50000, 4.
13.52000, 7.
13.54000, 11.
13.56000, 5.
13.58000, 7.
13.60000, 9.
13.62000, 9.
13.64000, 3.
13.66000, 7.
13.68000, 6.
13.70000, 7.
13.72000, 6.
13.74000, 6.
13.76000, 7.
13.78000, 7.
13.80000, 6.
13.82000, 3.
13.84000, 4.
13.86000, 6.
13.88000, 9.
13.90000, 6.
13.92000, 5.
13.94000, 6.
13.96000, 2.
13.98000, 5.
14.00000, 7.
14.02000, 5.
14.04000, 6.
14.06000, 8.
14.08000, 7.
14.10000, 5.
14.12000, 5.
14.14000, 7.
14.16000, 8.
14.18000, 7.
14.20000, 6.
14.22000, 7.
14.24000, 6.
14.26000, 4.
14.28000, 6.
14.30000, 6.
14.32000, 5.
14.34000, 2.
14.36000, 5.
14.38000, 6.
14.40000, 8.
14.42000, 7.
14.44000, 6.
14.46000, 3.
14.48000, 6.
14.50000, 5.
14.52000, 8.
14.54000, 4.
14.56000, 5.
14.58000, 6.
14.60000, 5.
14.62000, 8.
14.64000, 5.
14.66000, 8.
14.68000, 3.
14.70000, 6.
14.72000, 7.
14.74000, 2.
14.76000, 7.
14.78000, 3.
14.80000, 5.
14.82000, 7.
14.84000, 8.
14.86000, 8.
14.88000, 8.
14.90000, 7.
14.92000, 4.
14.94000, 7.
14.96000, 5.
14.98000, 2.
15.00000, 5.
15.02000, 10.
15.04000, 10.
15.06000, 7.
15.08000, 7.
15.10000, 4.
15.12000, 4.
15.14000, 5.
15.16000, 6.
15.18000, 4.
15.20000, 5.
15.22000, 5.
15.24000, 3.
15.26000, 6.
15.28000, 5.
15.30000, 4.
15.32000, 3.
15.34000, 0.
15.36000, 8.
15.38000, 2.
15.40000, 4.
15.42000, 3.
15.44000, 3.
15.46000, 4.
15.48000, 4.
15.50000, 2.
15.52000, 4.
15.54000, 4.
15.56000, 4.
15.58000, 5.
15.60000, 8.
15.62000, 3.
15.64000, 4.
15.66000, 5.
15.68000, 7.
15.70000, 7.
15.72000, 4.
15.74000, 1.
15.76000, 4.
15.78000, 2.
15.80000, 4.
15.82000, 3.
15.84000, 4.
15.86000, 6.
15.88000, 1.
15.90000, 4.
15.92000, 2.
15.94000, 4.
15.96000, 1.
15.98000, 5.
16.00000, 3.
16.02000, 1.
16.04000, 7.
16.06000, 2.
16.08000, 5.
16.10000, 4.
16.12000, 4.
16.14000, 3.
16.16000, 9.
16.18000, 6.
16.20000, 2.
16.22000, 2.
16.24000, 2.
16.26000, 0.
16.28000, 2.
16.30000, 3.
16.32000, 2.
16.34000, 3.
16.36000, 4.
16.38000, 2.
16.40000, 4.
16.42000, 1.
16.44000, 3.
16.46000, 2.
16.48000, 2.
16.50000, 0.
16.52000, 3.
16.54000, 5.
16.56000, 1.
16.58000, 3.
16.60000, 1.
16.62000, 6.
16.64000, 3.
16.66000, 4.
16.68000, 2.
16.70000, 3.
16.72000, 5.
16.74000, 2.
16.76000, 2.
16.78000, 1.
16.80000, 2.
16.82000, 3.
16.84000, 2.
16.86000, 3.
16.88000, 4.
16.90000, 4.
16.92000, 0.
16.94000, 2.
16.96000, 3.
16.98000, 2.
17.00000, 3.
17.02000, 3.
17.04000, 2.
17.06000, 0.
17.08000, 4.
17.10000, 5.
17.12000, 1.
17.14000, 2.
17.16000, 3.
17.18000, 4.
17.20000, 2.
17.22000, 3.
17.24000, 2.
17.26000, 7.
17.28000, 1.
17.30000, 5.
17.32000, 4.
17.34000, 1.
17.36000, 2.
17.38000, 1.
17.40000, 2.
17.42000, 2.
17.44000, 2.
17.46000, 0.
17.48000, 1.
17.50000, 0.
17.52000, 0.
17.54000, 3.
17.56000, 2.
17.58000, 2.
17.60000, 2.
17.62000, 1.
17.64000, 3.
17.66000, 1.
17.68000, 0.
17.70000, 4.
17.72000, 0.
17.74000, 2.
17.76000, 0.
17.78000, 0.
17.80000, 1.
17.82000, 0.
17.84000, 3.
17.86000, 2.
17.88000, 4.
17.90000, 4.
17.92000, 0.
17.94000, 3.
17.96000, 2.
17.98000, 0.
18.00000, 2.
18.02000, 1.
18.04000, 2.
18.06000, 1.
18.08000, 1.
18.10000, 0.
18.12000, 4.
18.14000, 1.
18.16000, 2.
18.18000, 1.
18.20000, 0.
18.22000, 0.
18.24000, 1.
18.26000, 0.
18.28000, 0.
18.30000, 2.
18.32000, 0.
18.34000, 0.
18.36000, 1.
18.38000, 0.
18.40000, 2.
18.42000, 0.
18.44000, 2.
18.46000, 1.
18.48000, 1.
18.50000, 1.
18.52000, 1.
18.54000, 0.
18.56000, 2.
18.58000, 2.
18.60000, 2.
18.62000, 1.
18.64000, 1.
18.66000, 2.
18.68000, 0.
18.70000, 2.
18.72000, 3.
18.74000, 2.
18.76000, 1.
18.78000, 0.
18.80000, 1.
18.82000, 1.
18.84000, 1.
18.86000, 2.
18.88000, 0.
18.90000, 1.
18.92000, 2.
18.94000, 0.
18.96000, 0.
18.98000, 0.
19.00000, 0.
19.02000, 0.
19.04000, 0.
19.06000, 2.
19.08000, 1.
19.10000, 0.
19.12000, 0.
19.14000, 0.
19.16000, 0.
19.18000, 0.
19.20000, 0.
19.22000, 1.
19.24000, 1.
19.26000, 1.
19.28000, 0.
19.30000, 0.
19.32000, 1.
19.34000, 1.
19.36000, 0.
19.38000, 0.
19.40000, 0.
19.42000, 1.
19.44000, 1.
19.46000, 1.
19.48000, 0.
19.50000, 0.
19.52000, 1.
19.54000, 0.
19.56000, 0.
19.58000, 1.
19.60000, 0.
19.62000, 0.
19.64000, 0.
19.66000, 0.
19.68000, 0.
19.70000, 0.
19.72000, 0.
19.74000, 0.
19.76000, 0.
19.78000, 0.
19.80000, 0.
19.82000, 0.
19.84000, 0.
19.86000, 0.
19.88000, 0.
19.90000, 0.
19.92000, 0.
19.94000, 0.
19.96000, 0.
19.98000, 0.
20.00000, 0.
20.02000, 0.
20.04000, 0.
20.06000, 0.
20.08000, 0.
20.10000, 0.
20.12000, 0.
20.14000, 0.
20.16000, 0.
20.18000, 0.
20.20000, 0.
20.22000, 0.
20.24000, 0.
20.26000, 0.
20.27000, 0.
#ENDOFDATA   :