File: data/monolayers/nanoparticles/Ac_CoFe_C_2/edx/data/DD130_9_YF45_2.txt
#FORMAT      : EMSA/MAS Spectral Data File
#VERSION     : 1.0
#TITLE       : Spectrum 1
#DATE        : 04-DEC-2018
#TIME        : 11:02
#OWNER       :
#NPOINTS     : 2048.
#NCOLUMNS    : 1.
#XUNITS      : keV
#YUNITS      : counts
#DATATYPE    : XY
#XPERCHAN    : 0.0100000
#OFFSET      : -0.200000
#SIGNALTYPE  : EDS
#CHOFFSET    : 20.0000
#LIVETIME    : 100
#REALTIME    : 112.944
#BEAMKV      : 20.0000
#PROBECUR    : 0.000000
#MAGCAM      : 1390.00
#XTILTSTGE   : 0.0
#AZIMANGLE   : 0.0
#ELEVANGLE   : 35.0
#XPOSITION mm: 0.0000
#YPOSITION mm: 0.0000
#ZPOSITION mm: 0.0000
##OXINSTPT   : 5
##OXINSTSTROB: 49.17
##OXINSTELEMS: 5,6,8,11,26,27
##OXINSTLABEL: 26, 6.404, Fe
##OXINSTLABEL: 26, 7.058, Fe
##OXINSTLABEL: 26, 0.705, Fe
##OXINSTLABEL: 26, 0.628, Fe
##OXINSTLABEL: 8, 0.525, O
##OXINSTLABEL: 11, 1.041, Na
##OXINSTLABEL: 27, 6.930, Co
##OXINSTLABEL: 27, 7.650, Co
##OXINSTLABEL: 27, 0.776, Co
##OXINSTLABEL: 27, 0.694, Co
##OXINSTLABEL: 27, 0.678, Co
##OXINSTLABEL: 6, 0.277, C
##OXINSTLABEL: 5, 0.183, B
#SPECTRUM    : Spectral Data Starts Here
-0.20000, 0.
-0.18000, 1.
-0.16000, 0.
-0.14000, 0.
-0.12000, 4.
-0.10000, 1.
-0.08000, 3.
-0.06000, 47.
-0.04000, 395.
-0.02000, 1919.
0.00000, 4693.
0.02000, 5256.
0.04000, 2970.
0.06000, 757.
0.08000, 149.
0.10000, 73.
0.12000, 75.
0.14000, 139.
0.16000, 161.
0.18000, 128.
0.20000, 81.
0.22000, 80.
0.24000, 133.
0.26000, 225.
0.28000, 259.
0.30000, 155.
0.32000, 67.
0.34000, 49.
0.36000, 58.
0.38000, 55.
0.40000, 71.
0.42000, 77.
0.44000, 109.
0.46000, 278.
0.48000, 750.
0.50000, 1593.
0.52000, 2163.
0.54000, 1794.
0.56000, 847.
0.58000, 332.
0.60000, 238.
0.62000, 235.
0.64000, 271.
0.66000, 332.
0.68000, 569.
0.70000, 760.
0.72000, 685.
0.74000, 482.
0.76000, 366.
0.78000, 326.
0.80000, 239.
0.82000, 140.
0.84000, 76.
0.86000, 50.
0.88000, 45.
0.90000, 37.
0.92000, 35.
0.94000, 45.
0.96000, 35.
0.98000, 55.
1.00000, 64.
1.02000, 104.
1.04000, 107.
1.06000, 109.
1.08000, 80.
1.10000, 64.
1.12000, 47.
1.14000, 52.
1.16000, 44.
1.18000, 60.
1.20000, 62.
1.22000, 53.
1.24000, 58.
1.26000, 54.
1.28000, 68.
1.30000, 57.
1.32000, 61.
1.34000, 61.
1.36000, 75.
1.38000, 63.
1.40000, 67.
1.42000, 66.
1.44000, 79.
1.46000, 70.
1.48000, 74.
1.50000, 81.
1.52000, 75.
1.54000, 74.
1.56000, 74.
1.58000, 82.
1.60000, 73.
1.62000, 76.
1.64000, 95.
1.66000, 95.
1.68000, 91.
1.70000, 84.
1.72000, 80.
1.74000, 96.
1.76000, 100.
1.78000, 104.
1.80000, 100.
1.82000, 85.
1.84000, 88.
1.86000, 90.
1.88000, 86.
1.90000, 75.
1.92000, 77.
1.94000, 84.
1.96000, 94.
1.98000, 77.
2.00000, 81.
2.02000, 86.
2.04000, 92.
2.06000, 82.
2.08000, 81.
2.10000, 81.
2.12000, 83.
2.14000, 90.
2.16000, 83.
2.18000, 85.
2.20000, 77.
2.22000, 98.
2.24000, 87.
2.26000, 106.
2.28000, 92.
2.30000, 94.
2.32000, 103.
2.34000, 91.
2.36000, 91.
2.38000, 83.
2.40000, 85.
2.42000, 88.
2.44000, 85.
2.46000, 89.
2.48000, 89.
2.50000, 100.
2.52000, 82.
2.54000, 81.
2.56000, 101.
2.58000, 94.
2.60000, 112.
2.62000, 96.
2.64000, 99.
2.66000, 104.
2.68000, 93.
2.70000, 95.
2.72000, 84.
2.74000, 76.
2.76000, 86.
2.78000, 82.
2.80000, 86.
2.82000, 80.
2.84000, 82.
2.86000, 76.
2.88000, 72.
2.90000, 69.
2.92000, 82.
2.94000, 80.
2.96000, 81.
2.98000, 66.
3.00000, 96.
3.02000, 70.
3.04000, 76.
3.06000, 71.
3.08000, 80.
3.10000, 79.
3.12000, 76.
3.14000, 77.
3.16000, 74.
3.18000, 75.
3.20000, 72.
3.22000, 61.
3.24000, 70.
3.26000, 72.
3.28000, 69.
3.30000, 76.
3.32000, 68.
3.34000, 76.
3.36000, 69.
3.38000, 67.
3.40000, 66.
3.42000, 73.
3.44000, 73.
3.46000, 61.
3.48000, 60.
3.50000, 67.
3.52000, 64.
3.54000, 61.
3.56000, 73.
3.58000, 67.
3.60000, 57.
3.62000, 80.
3.64000, 73.
3.66000, 70.
3.68000, 59.
3.70000, 54.
3.72000, 64.
3.74000, 68.
3.76000, 66.
3.78000, 69.
3.80000, 54.
3.82000, 57.
3.84000, 65.
3.86000, 54.
3.88000, 54.
3.90000, 65.
3.92000, 54.
3.94000, 59.
3.96000, 61.
3.98000, 59.
4.00000, 64.
4.02000, 55.
4.04000, 63.
4.06000, 55.
4.08000, 52.
4.10000, 49.
4.12000, 58.
4.14000, 65.
4.16000, 62.
4.18000, 63.
4.20000, 58.
4.22000, 52.
4.24000, 56.
4.26000, 44.
4.28000, 44.
4.30000, 52.
4.32000, 44.
4.34000, 53.
4.36000, 54.
4.38000, 53.
4.40000, 42.
4.42000, 59.
4.44000, 56.
4.46000, 37.
4.48000, 52.
4.50000, 51.
4.52000, 55.
4.54000, 53.
4.56000, 44.
4.58000, 60.
4.60000, 56.
4.62000, 49.
4.64000, 56.
4.66000, 58.
4.68000, 53.
4.70000, 49.
4.72000, 47.
4.74000, 62.
4.76000, 52.
4.78000, 39.
4.80000, 49.
4.82000, 45.
4.84000, 42.
4.86000, 47.
4.88000, 47.
4.90000, 50.
4.92000, 34.
4.94000, 48.
4.96000, 47.
4.98000, 41.
5.00000, 41.
5.02000, 37.
5.04000, 39.
5.06000, 46.
5.08000, 39.
5.10000, 48.
5.12000, 42.
5.14000, 39.
5.16000, 52.
5.18000, 35.
5.20000, 51.
5.22000, 43.
5.24000, 37.
5.26000, 40.
5.28000, 36.
5.30000, 39.
5.32000, 49.
5.34000, 48.
5.36000, 47.
5.38000, 37.
5.40000, 44.
5.42000, 39.
5.44000, 32.
5.46000, 39.
5.48000, 42.
5.50000, 48.
5.52000, 40.
5.54000, 35.
5.56000, 38.
5.58000, 42.
5.60000, 32.
5.62000, 30.
5.64000, 29.
5.66000, 38.
5.68000, 34.
5.70000, 44.
5.72000, 37.
5.74000, 27.
5.76000, 33.
5.78000, 33.
5.80000, 36.
5.82000, 31.
5.84000, 41.
5.86000, 43.
5.88000, 43.
5.90000, 31.
5.92000, 38.
5.94000, 29.
5.96000, 30.
5.98000, 40.
6.00000, 49.
6.02000, 37.
6.04000, 46.
6.06000, 37.
6.08000, 40.
6.10000, 32.
6.12000, 33.
6.14000, 47.
6.16000, 37.
6.18000, 49.
6.20000, 42.
6.22000, 53.
6.24000, 78.
6.26000, 120.
6.28000, 231.
6.30000, 407.
6.32000, 668.
6.34000, 1046.
6.36000, 1356.
6.38000, 1625.
6.40000, 1734.
6.42000, 1602.
6.44000, 1376.
6.46000, 1006.
6.48000, 698.
6.50000, 392.
6.52000, 232.
6.54000, 129.
6.56000, 73.
6.58000, 56.
6.60000, 35.
6.62000, 42.
6.64000, 34.
6.66000, 26.
6.68000, 31.
6.70000, 40.
6.72000, 41.
6.74000, 38.
6.76000, 45.
6.78000, 67.
6.80000, 82.
6.82000, 152.
6.84000, 219.
6.86000, 334.
6.88000, 438.
6.90000, 550.
6.92000, 585.
6.94000, 591.
6.96000, 564.
6.98000, 445.
7.00000, 426.
7.02000, 343.
7.04000, 327.
7.06000, 268.
7.08000, 220.
7.10000, 175.
7.12000, 176.
7.14000, 92.
7.16000, 59.
7.18000, 52.
7.20000, 39.
7.22000, 33.
7.24000, 25.
7.26000, 23.
7.28000, 24.
7.30000, 30.
7.32000, 19.
7.34000, 12.
7.36000, 24.
7.38000, 25.
7.40000, 31.
7.42000, 28.
7.44000, 19.
7.46000, 24.
7.48000, 25.
7.50000, 37.
7.52000, 46.
7.54000, 42.
7.56000, 50.
7.58000, 59.
7.60000, 71.
7.62000, 76.
7.64000, 71.
7.66000, 87.
7.68000, 62.
7.70000, 72.
7.72000, 58.
7.74000, 32.
7.76000, 29.
7.78000, 28.
7.80000, 23.
7.82000, 13.
7.84000, 23.
7.86000, 24.
7.88000, 24.
7.90000, 22.
7.92000, 21.
7.94000, 24.
7.96000, 18.
7.98000, 18.
8.00000, 20.
8.02000, 17.
8.04000, 23.
8.06000, 22.
8.08000, 22.
8.10000, 13.
8.12000, 23.
8.14000, 28.
8.16000, 19.
8.18000, 15.
8.20000, 20.
8.22000, 17.
8.24000, 23.
8.26000, 13.
8.28000, 26.
8.30000, 16.
8.32000, 16.
8.34000, 15.
8.36000, 11.
8.38000, 17.
8.40000, 16.
8.42000, 15.
8.44000, 16.
8.46000, 17.
8.48000, 21.
8.50000, 14.
8.52000, 19.
8.54000, 17.
8.56000, 20.
8.58000, 19.
8.60000, 19.
8.62000, 21.
8.64000, 21.
8.66000, 23.
8.68000, 21.
8.70000, 20.
8.72000, 11.
8.74000, 15.
8.76000, 19.
8.78000, 18.
8.80000, 20.
8.82000, 16.
8.84000, 14.
8.86000, 13.
8.88000, 20.
8.90000, 17.
8.92000, 18.
8.94000, 13.
8.96000, 15.
8.98000, 17.
9.00000, 17.
9.02000, 11.
9.04000, 19.
9.06000, 16.
9.08000, 19.
9.10000, 14.
9.12000, 16.
9.14000, 15.
9.16000, 14.
9.18000, 11.
9.20000, 17.
9.22000, 14.
9.24000, 18.
9.26000, 22.
9.28000, 12.
9.30000, 16.
9.32000, 17.
9.34000, 16.
9.36000, 13.
9.38000, 12.
9.40000, 18.
9.42000, 14.
9.44000, 14.
9.46000, 14.
9.48000, 15.
9.50000, 15.
9.52000, 17.
9.54000, 16.
9.56000, 15.
9.58000, 13.
9.60000, 14.
9.62000, 15.
9.64000, 18.
9.66000, 17.
9.68000, 15.
9.70000, 14.
9.72000, 13.
9.74000, 9.
9.76000, 15.
9.78000, 12.
9.80000, 17.
9.82000, 14.
9.84000, 13.
9.86000, 13.
9.88000, 10.
9.90000, 12.
9.92000, 14.
9.94000, 11.
9.96000, 13.
9.98000, 12.
10.00000, 13.
10.02000, 11.
10.04000, 15.
10.06000, 13.
10.08000, 19.
10.10000, 12.
10.12000, 13.
10.14000, 14.
10.16000, 14.
10.18000, 18.
10.20000, 11.
10.22000, 13.
10.24000, 17.
10.26000, 10.
10.28000, 11.
10.30000, 12.
10.32000, 14.
10.34000, 12.
10.36000, 13.
10.38000, 15.
10.40000, 8.
10.42000, 14.
10.44000, 12.
10.46000, 14.
10.48000, 10.
10.50000, 14.
10.52000, 13.
10.54000, 15.
10.56000, 12.
10.58000, 12.
10.60000, 10.
10.62000, 9.
10.64000, 7.
10.66000, 11.
10.68000, 10.
10.70000, 14.
10.72000, 13.
10.74000, 12.
10.76000, 12.
10.78000, 10.
10.80000, 11.
10.82000, 12.
10.84000, 13.
10.86000, 6.
10.88000, 10.
10.90000, 17.
10.92000, 10.
10.94000, 8.
10.96000, 9.
10.98000, 17.
11.00000, 9.
11.02000, 11.
11.04000, 12.
11.06000, 9.
11.08000, 17.
11.10000, 12.
11.12000, 10.
11.14000, 8.
11.16000, 11.
11.18000, 10.
11.20000, 13.
11.22000, 8.
11.24000, 9.
11.26000, 10.
11.28000, 10.
11.30000, 13.
11.32000, 8.
11.34000, 9.
11.36000, 5.
11.38000, 9.
11.40000, 12.
11.42000, 10.
11.44000, 11.
11.46000, 9.
11.48000, 11.
11.50000, 12.
11.52000, 13.
11.54000, 12.
11.56000, 10.
11.58000, 12.
11.60000, 10.
11.62000, 8.
11.64000, 11.
11.66000, 7.
11.68000, 8.
11.70000, 8.
11.72000, 11.
11.74000, 10.
11.76000, 12.
11.78000, 11.
11.80000, 9.
11.82000, 7.
11.84000, 12.
11.86000, 9.
11.88000, 10.
11.90000, 9.
11.92000, 9.
11.94000, 8.
11.96000, 14.
11.98000, 8.
12.00000, 7.
12.02000, 8.
12.04000, 9.
12.06000, 5.
12.08000, 13.
12.10000, 6.
12.12000, 8.
12.14000, 10.
12.16000, 10.
12.18000, 6.
12.20000, 11.
12.22000, 11.
12.24000, 9.
12.26000, 8.
12.28000, 9.
12.30000, 7.
12.32000, 8.
12.34000, 10.
12.36000, 9.
12.38000, 10.
12.40000, 7.
12.42000, 10.
12.44000, 7.
12.46000, 8.
12.48000, 10.
12.50000, 6.
12.52000, 9.
12.54000, 10.
12.56000, 10.
12.58000, 9.
12.60000, 7.
12.62000, 5.
12.64000, 11.
12.66000, 9.
12.68000, 6.
12.70000, 7.
12.72000, 7.
12.74000, 9.
12.76000, 8.
12.78000, 4.
12.80000, 7.
12.82000, 10.
12.84000, 7.
12.86000, 5.
12.88000, 9.
12.90000, 11.
12.92000, 9.
12.94000, 11.
12.96000, 6.
12.98000, 7.
13.00000, 12.
13.02000, 9.
13.04000, 10.
13.06000, 10.
13.08000, 8.
13.10000, 12.
13.12000, 12.
13.14000, 6.
13.16000, 7.
13.18000, 12.
13.20000, 7.
13.22000, 6.
13.24000, 8.
13.26000, 4.
13.28000, 8.
13.30000, 7.
13.32000, 8.
13.34000, 8.
13.36000, 8.
13.38000, 7.
13.40000, 5.
13.42000, 10.
13.44000, 6.
13.46000, 11.
13.48000, 7.
13.50000, 7.
13.52000, 5.
13.54000, 9.
13.56000, 6.
13.58000, 6.
13.60000, 10.
13.62000, 5.
13.64000, 6.
13.66000, 6.
13.68000, 8.
13.70000, 7.
13.72000, 5.
13.74000, 10.
13.76000, 7.
13.78000, 9.
13.80000, 6.
13.82000, 9.
13.84000, 4.
13.86000, 6.
13.88000, 4.
13.90000, 4.
13.92000, 6.
13.94000, 4.
13.96000, 7.
13.98000, 5.
14.00000, 7.
14.02000, 5.
14.04000, 6.
14.06000, 6.
14.08000, 5.
14.10000, 5.
14.12000, 4.
14.14000, 5.
14.16000, 10.
14.18000, 6.
14.20000, 7.
14.22000, 6.
14.24000, 9.
14.26000, 4.
14.28000, 7.
14.30000, 3.
14.32000, 7.
14.34000, 3.
14.36000, 3.
14.38000, 7.
14.40000, 6.
14.42000, 8.
14.44000, 5.
14.46000, 5.
14.48000, 5.
14.50000, 6.
14.52000, 7.
14.54000, 5.
14.56000, 3.
14.58000, 5.
14.60000, 4.
14.62000, 5.
14.64000, 7.
14.66000, 5.
14.68000, 6.
14.70000, 6.
14.72000, 7.
14.74000, 2.
14.76000, 4.
14.78000, 3.
14.80000, 4.
14.82000, 4.
14.84000, 3.
14.86000, 4.
14.88000, 2.
14.90000, 4.
14.92000, 2.
14.94000, 7.
14.96000, 6.
14.98000, 2.
15.00000, 6.
15.02000, 2.
15.04000, 5.
15.06000, 7.
15.08000, 2.
15.10000, 4.
15.12000, 4.
15.14000, 5.
15.16000, 8.
15.18000, 6.
15.20000, 6.
15.22000, 3.
15.24000, 2.
15.26000, 3.
15.28000, 7.
15.30000, 4.
15.32000, 7.
15.34000, 2.
15.36000, 3.
15.38000, 4.
15.40000, 3.
15.42000, 2.
15.44000, 5.
15.46000, 3.
15.48000, 5.
15.50000, 5.
15.52000, 5.
15.54000, 3.
15.56000, 4.
15.58000, 5.
15.60000, 4.
15.62000, 3.
15.64000, 0.
15.66000, 4.
15.68000, 1.
15.70000, 3.
15.72000, 4.
15.74000, 2.
15.76000, 4.
15.78000, 6.
15.80000, 4.
15.82000, 3.
15.84000, 5.
15.86000, 4.
15.88000, 2.
15.90000, 2.
15.92000, 4.
15.94000, 3.
15.96000, 5.
15.98000, 3.
16.00000, 6.
16.02000, 3.
16.04000, 7.
16.06000, 1.
16.08000, 3.
16.10000, 2.
16.12000, 4.
16.14000, 4.
16.16000, 2.
16.18000, 2.
16.20000, 2.
16.22000, 3.
16.24000, 2.
16.26000, 1.
16.28000, 2.
16.30000, 3.
16.32000, 3.
16.34000, 2.
16.36000, 1.
16.38000, 4.
16.40000, 5.
16.42000, 3.
16.44000, 5.
16.46000, 3.
16.48000, 3.
16.50000, 3.
16.52000, 6.
16.54000, 4.
16.56000, 1.
16.58000, 4.
16.60000, 2.
16.62000, 1.
16.64000, 3.
16.66000, 4.
16.68000, 1.
16.70000, 2.
16.72000, 1.
16.74000, 2.
16.76000, 0.
16.78000, 3.
16.80000, 3.
16.82000, 0.
16.84000, 2.
16.86000, 3.
16.88000, 6.
16.90000, 2.
16.92000, 3.
16.94000, 2.
16.96000, 3.
16.98000, 4.
17.00000, 3.
17.02000, 2.
17.04000, 3.
17.06000, 1.
17.08000, 2.
17.10000, 2.
17.12000, 1.
17.14000, 5.
17.16000, 3.
17.18000, 3.
17.20000, 2.
17.22000, 1.
17.24000, 1.
17.26000, 5.
17.28000, 1.
17.30000, 1.
17.32000, 1.
17.34000, 0.
17.36000, 1.
17.38000, 4.
17.40000, 2.
17.42000, 2.
17.44000, 5.
17.46000, 2.
17.48000, 1.
17.50000, 3.
17.52000, 2.
17.54000, 3.
17.56000, 1.
17.58000, 2.
17.60000, 2.
17.62000, 1.
17.64000, 0.
17.66000, 0.
17.68000, 0.
17.70000, 2.
17.72000, 1.
17.74000, 3.
17.76000, 1.
17.78000, 5.
17.80000, 1.
17.82000, 3.
17.84000, 0.
17.86000, 1.
17.88000, 3.
17.90000, 1.
17.92000, 1.
17.94000, 6.
17.96000, 4.
17.98000, 1.
18.00000, 2.
18.02000, 3.
18.04000, 2.
18.06000, 1.
18.08000, 2.
18.10000, 0.
18.12000, 1.
18.14000, 2.
18.16000, 0.
18.18000, 2.
18.20000, 3.
18.22000, 1.
18.24000, 0.
18.26000, 1.
18.28000, 2.
18.30000, 1.
18.32000, 1.
18.34000, 3.
18.36000, 1.
18.38000, 0.
18.40000, 1.
18.42000, 2.
18.44000, 0.
18.46000, 1.
18.48000, 1.
18.50000, 1.
18.52000, 2.
18.54000, 0.
18.56000, 1.
18.58000, 0.
18.60000, 1.
18.62000, 0.
18.64000, 2.
18.66000, 0.
18.68000, 0.
18.70000, 1.
18.72000, 0.
18.74000, 0.
18.76000, 0.
18.78000, 2.
18.80000, 1.
18.82000, 1.
18.84000, 1.
18.86000, 1.
18.88000, 1.
18.90000, 1.
18.92000, 1.
18.94000, 1.
18.96000, 1.
18.98000, 0.
19.00000, 0.
19.02000, 1.
19.04000, 1.
19.06000, 0.
19.08000, 2.
19.10000, 3.
19.12000, 1.
19.14000, 0.
19.16000, 2.
19.18000, 0.
19.20000, 1.
19.22000, 0.
19.24000, 0.
19.26000, 0.
19.28000, 1.
19.30000, 0.
19.32000, 1.
19.34000, 0.
19.36000, 0.
19.38000, 0.
19.40000, 1.
19.42000, 1.
19.44000, 0.
19.46000, 0.
19.48000, 0.
19.50000, 0.
19.52000, 1.
19.54000, 1.
19.56000, 0.
19.58000, 0.
19.60000, 0.
19.62000, 0.
19.64000, 1.
19.66000, 0.
19.68000, 0.
19.70000, 0.
19.72000, 0.
19.74000, 0.
19.76000, 0.
19.78000, 0.
19.80000, 0.
19.82000, 0.
19.84000, 0.
19.86000, 0.
19.88000, 0.
19.90000, 0.
19.92000, 0.
19.94000, 0.
19.96000, 0.
19.98000, 0.
20.00000, 0.
20.02000, 0.
20.04000, 0.
20.06000, 0.
20.08000, 0.
20.10000, 0.
20.12000, 0.
20.14000, 0.
20.16000, 0.
20.18000, 0.
20.20000, 0.
20.22000, 0.
20.24000, 0.
20.26000, 0.
20.27000, 0.
#ENDOFDATA   :