File: data/monolayers/nanoparticles/Ac_CoFe_C/vsm/AH11_LangevinSAXSscaled.xye
#Executed at: 2018-11-09 13:18:15.978
#Loaded File	 = ./AH11_HYST_100OE_300K.DAT
#particle info	 = Superball Model, r = 46.9421 A, p = 2.65743
#fit report	 = [[Fit Statistics]]
#    # fitting method   = leastsq
#    # function evals   = 59
#    # data points      = 882
#    # variables        = 3
#    chi-square         = 4.3142e+09
#    reduced chi-square = 4908101.09
#    Akaike info crit   = 13591.4
#    Bayesian info crit = 13605.8
#[[Variables]]
#    Ms:   1983.21 +/- 8.45653 (0.43%) (init = 1)
#    mu:   22549.1 +/- 256.886 (1.14%) (init = 10000)
#    chi:  20.7399 +/- 12.4459 (60.01%) (init = 0)
#    T:    300 (fixed)
#[[Correlations]] (unreported correlations are < 0.100)
#    C(Ms, chi) = -0.922
#    C(Ms, mu)  = -0.737
#    C(mu, chi) =  0.621
#Ms Should	 = 287.521 kA/m
#Rescale Factor	 = 0.144977
#[[Data]]
#B/T	M/kAm-1	sM/kAm-1	M_raw/memu	sM_raw/memu
0.0124541	108.764	0.00330894	750.215	0.0228239
0.00238763	-6.4436	0.00032415	-44.4455	0.00223587
0.00556588	7.95442	0.00097301	54.8666	0.00671147
0.0104399	56.1026	0.00171749	386.975	0.0118466
0.0163327	80.0436	0.0018951	552.111	0.0130717
0.0222853	101.14	0.00236766	697.626	0.0163313
0.0275217	120.478	0.00252371	831.012	0.0174076
0.0330337	135.56	0.00235975	935.044	0.0162766
0.0382584	149.935	0.00274159	1034.2	0.0189104
0.0427396	162.827	0.0033436	1123.12	0.0230629
0.0474835	173.115	0.00270346	1194.09	0.0186475
0.0532187	180.455	0.00351742	1244.71	0.0242618
0.0589611	189.375	0.00360392	1306.24	0.0248585
0.0639568	198.057	0.00383295	1366.12	0.0264383
0.0689492	202.895	0.00390964	1399.5	0.0269673
0.0744314	209.56	0.00432121	1445.47	0.0298061
0.0799147	212.647	0.00354984	1466.76	0.0244855
0.0856461	220.074	0.00430049	1517.99	0.0296632
0.0916369	225.237	0.0041486	1553.6	0.0286155
0.0971384	229.646	0.00468687	1584.01	0.0323283
0.102625	231.24	0.00411256	1595.01	0.0283669
0.112337	230.624	0.00455323	1590.76	0.0314065
0.114823	234.33	0.0041935	1616.32	0.0289252
0.119548	238.974	0.00396152	1648.36	0.0273251
0.124786	243.623	0.0055682	1680.42	0.0384074
0.129522	242.052	0.00528479	1669.59	0.0364525
0.134753	246.189	0.00546095	1698.12	0.0376676
0.14098	244.194	0.00396305	1684.36	0.0273356
0.146705	248.971	0.00422327	1717.31	0.0291306
0.151955	247.728	0.00466828	1708.73	0.0322001
0.157943	248.729	0.00449208	1715.64	0.0309847
0.163918	251.696	0.00505551	1736.11	0.034871
0.169161	253.827	0.00506657	1750.8	0.0349473
0.174902	252.395	0.00511111	1740.92	0.0352545
0.180632	256.069	0.00421958	1766.27	0.0291051
0.186362	260.746	0.0047726	1798.53	0.0329197
0.192608	260.539	0.00598608	1797.1	0.0412898
0.198607	260.055	0.00421672	1793.76	0.0290853
0.203334	262.231	0.00504597	1808.77	0.0348052
0.208539	263.584	0.0054789	1818.11	0.0377914
0.214506	262.283	0.00426954	1809.13	0.0294497
0.219518	260.723	0.0055138	1798.37	0.0380322
0.224267	262.126	0.00453036	1808.05	0.0312488
0.229752	266.102	0.00411021	1835.47	0.0283507
0.235481	268.734	0.00520755	1853.63	0.0359198
0.241202	266.817	0.00514672	1840.4	0.0355002
0.247429	267.089	0.00606033	1842.28	0.0418019
0.253158	265.853	0.00427102	1833.76	0.0294599
0.258657	267.649	0.00428648	1846.14	0.0295666
0.264641	266.579	0.00470554	1838.76	0.0324571
0.270377	268.024	0.0043373	1848.73	0.0299171
0.276116	269.051	0.00561931	1855.82	0.0387599
0.281827	270.56	0.00394733	1866.22	0.0272272
0.287558	274.477	0.00564921	1893.24	0.0389661
0.293046	272.162	0.00493514	1877.27	0.0340408
0.298286	269.582	0.00469778	1859.48	0.0324035
0.303774	271.727	0.0047024	1874.27	0.0324354
0.308751	270.754	0.00487436	1867.56	0.0336215
0.313738	270.591	0.00497158	1866.44	0.0342921
0.319719	270.779	0.00508591	1867.73	0.0350807
0.324956	269.215	0.00516694	1856.95	0.0356397
0.329937	266.909	0.00441753	1841.04	0.0304705
0.335903	271.434	0.00535082	1872.25	0.0369079
0.341391	275.56	0.00504149	1900.71	0.0347743
0.346641	273.545	0.00494425	1886.81	0.0341036
0.352629	270.902	0.00537529	1868.58	0.0370768
0.357624	274.638	0.00546987	1894.35	0.0377291
0.362349	274.223	0.00570246	1891.49	0.0393334
0.368059	276.114	0.00514975	1904.53	0.0355211
0.372803	275.276	0.00490895	1898.75	0.0338601
0.377547	271.074	0.0049029	1869.77	0.0338184
0.383028	272.487	0.00467947	1879.51	0.0322772
0.388516	272.794	0.0057846	1881.63	0.0399
0.398252	280.157	0.00531882	1932.42	0.0366872
0.401498	277.109	0.00539742	1911.4	0.0372294
0.406724	273.419	0.00506721	1885.94	0.0349517
0.412453	276.134	0.00644956	1904.67	0.0444867
0.418453	273.781	0.00516535	1888.44	0.0356287
0.423198	273.9	0.00564813	1889.26	0.0389587
0.42819	280.396	0.00565752	1934.07	0.0390235
0.433944	276.167	0.00568784	1904.89	0.0392326
0.438935	276.828	0.00463761	1909.46	0.0319885
0.448909	278.953	0.00517663	1924.11	0.0357065
0.452356	277.845	0.00454969	1916.47	0.0313821
0.458122	275.399	0.00582262	1899.6	0.0401622
0.463388	281.942	0.00584859	1944.73	0.0403414
0.468887	280.773	0.00470743	1936.66	0.0324701
0.473895	280.305	0.00620688	1933.44	0.0428128
0.479103	278.476	0.00604879	1920.82	0.0417223
0.48508	276.623	0.0067266	1908.04	0.0463976
0.49058	281.444	0.00585215	1941.3	0.040366
0.500026	282.86	0.00570272	1951.06	0.0393353
0.503031	277.608	0.00558714	1914.84	0.038538
0.508555	282.788	0.00500734	1950.57	0.0345388
0.513546	280.945	0.00506186	1937.85	0.0349148
0.518734	284.326	0.00514261	1961.17	0.0354718
0.523985	282.719	0.00464629	1950.09	0.0320484
0.529508	279.378	0.00591968	1927.05	0.0408318
0.53548	282.207	0.00529456	1946.56	0.0365199
0.541209	279.756	0.00438981	1929.66	0.0302793
0.546961	283.035	0.004958	1952.27	0.0341984
0.552714	282.189	0.00550248	1946.43	0.0379541
0.558454	278.93	0.00526046	1923.95	0.0362847
0.56419	282.385	0.00509835	1947.79	0.0351666
0.569937	279.535	0.00490335	1928.13	0.0338215
0.575911	278.734	0.00690855	1922.6	0.0476526
0.581163	285.124	0.00615633	1966.68	0.0424641
0.586206	284.329	0.00661213	1961.2	0.045608
0.591923	283.077	0.00502305	1952.56	0.0346471
0.597635	283.078	0.00516516	1952.57	0.0356273
0.603132	282.435	0.00653519	1948.13	0.0450773
0.608904	286.619	0.00517945	1976.99	0.035726
0.614658	282.317	0.00581426	1947.32	0.0401046
0.620138	282.096	0.00567149	1945.79	0.0391198
0.630128	278.956	0.00541369	1924.14	0.0373416
0.633388	283.475	0.00426995	1955.3	0.0294525
0.639145	277.094	0.00413104	1911.29	0.0284944
0.644858	285.752	0.00580101	1971.01	0.0400132
0.655345	282.477	0.00543828	1948.42	0.0375113
0.658352	282.517	0.00490042	1948.7	0.0338013
0.664102	285.585	0.0053377	1969.86	0.0368175
0.669322	283.937	0.00477543	1958.49	0.0329391
0.678562	283.092	0.0065917	1952.66	0.0454671
0.681831	283.304	0.00588978	1954.12	0.0406255
0.68758	280.835	0.00486355	1937.1	0.033547
0.693074	285.661	0.00601846	1970.38	0.0415131
0.698581	285.639	0.00550118	1970.23	0.0379451
0.70382	286.053	0.00584136	1973.09	0.0402916
0.709321	283.212	0.00519895	1953.49	0.0358604
0.719566	283.841	0.00570413	1957.83	0.0393449
0.722322	284.988	0.00605516	1965.74	0.0417663
0.727555	286.615	0.00571464	1976.96	0.0394175
0.733286	280.403	0.00567444	1934.12	0.0391402
0.739301	284.76	0.00565842	1964.17	0.0390297
0.745067	282.957	0.00700627	1951.73	0.0483267
0.750798	283.793	0.00505802	1957.5	0.0348884
0.761015	284.273	0.00627595	1960.81	0.0432892
0.764277	288.989	0.00644507	1993.34	0.0444557
0.770036	285.842	0.00517122	1971.63	0.0356692
0.775272	286.202	0.00567148	1974.12	0.0391198
0.780737	280.45	0.00582169	1934.44	0.0401559
0.786735	291.022	0.00516665	2007.36	0.0356377
0.792268	285.67	0.0052113	1970.44	0.0359456
0.798004	284.782	0.00633638	1964.32	0.043706
0.803982	285.369	0.00531948	1968.37	0.0366918
0.809706	284.787	0.00700424	1964.35	0.0483127
0.815197	287.166	0.0060288	1980.77	0.0415844
0.820473	284.057	0.00550469	1959.32	0.0379693
0.825727	288.258	0.00445133	1988.3	0.0307036
0.830982	286.639	0.00462291	1977.13	0.0318871
0.836976	277.894	0.00613184	1916.81	0.0422951
0.843221	281.965	0.00568416	1944.89	0.0392072
0.848969	284.738	0.0047874	1964.02	0.0330217
0.85497	285.754	0.0050837	1971.02	0.0350655
0.861487	283.929	0.00532801	1958.44	0.0367507
0.867487	283.49	0.00598802	1955.41	0.0413032
0.872977	286.659	0.00638676	1977.26	0.0440535
0.878709	281.433	0.00486164	1941.22	0.0335338
0.884709	286.402	0.00586686	1975.49	0.0404674
0.890243	284.956	0.00503906	1965.52	0.0347576
0.895507	289.082	0.0060643	1993.98	0.0418293
0.901005	283.463	0.00487036	1955.22	0.0335939
0.906016	281.075	0.00514946	1938.75	0.0355191
0.911528	285.729	0.00501873	1970.85	0.0346173
0.917772	283.088	0.00442342	1952.64	0.0305111
0.923256	282.639	0.00528631	1949.54	0.036463
0.928494	286.029	0.00463262	1972.92	0.0319541
0.934515	285.101	0.00654884	1966.52	0.0451715
0.94025	284.529	0.00542237	1962.57	0.0374015
0.94572	284.287	0.00605962	1960.91	0.041797
0.955479	288.828	0.0058524	1992.23	0.0403677
0.95872	288.102	0.00631521	1987.22	0.04356
0.963976	286.294	0.00619588	1974.75	0.0427369
0.969474	284.572	0.00517165	1962.87	0.0356721
0.975465	286.868	0.00560856	1978.71	0.0386858
0.980743	285.402	0.00521759	1968.6	0.035989
0.986233	285.97	0.00494105	1972.51	0.0340816
0.996455	284.994	0.00614329	1965.78	0.0423741
0.999472	284.973	0.00620602	1965.64	0.0428068
0.99825	284.423	0.00578409	1961.85	0.0398965
0.991989	284.721	0.00544576	1963.9	0.0375628
0.986703	285.165	0.00604333	1966.96	0.0416847
0.981468	283.588	0.00526359	1956.08	0.0363063
0.975739	283.691	0.00625593	1956.8	0.0431511
0.971005	284.615	0.00515811	1963.17	0.0355787
0.966006	282.713	0.00475028	1950.05	0.0327657
0.959484	286.976	0.00511103	1979.45	0.035254
0.953266	287.153	0.00567535	1980.67	0.0391465
0.947286	284.206	0.00503712	1960.35	0.0347442
0.941038	282.806	0.00580656	1950.69	0.0400515
0.935055	287.029	0.00479235	1979.82	0.0330559
0.92955	284.311	0.00468973	1961.07	0.032348
0.924276	282.81	0.00497755	1950.72	0.0343333
0.91877	280.941	0.00503261	1937.83	0.034713
0.913556	279.776	0.00515514	1929.79	0.0355583
0.908044	288.158	0.00530183	1987.61	0.03657
0.902278	284.341	0.00527515	1961.28	0.036386
0.897087	282.406	0.00590793	1947.93	0.0407507
0.891564	282.999	0.00485721	1952.02	0.0335033
0.885218	285.055	0.00525679	1966.2	0.0362594
0.879717	281.778	0.00546755	1943.6	0.0377132
0.874517	286.802	0.00524302	1978.26	0.0361644
0.86877	282.617	0.00530241	1949.39	0.0365741
0.86249	282.972	0.00470639	1951.84	0.0324629
0.85626	282.689	0.00560968	1949.88	0.0386935
0.850744	282.1	0.00588816	1945.82	0.0406144
0.845463	281.649	0.00591316	1942.71	0.0407868
0.835979	286.99	0.00621839	1979.55	0.0428921
0.832495	286.881	0.00522681	1978.8	0.0360526
0.826273	279.699	0.00439506	1929.26	0.0303155
0.821013	286.435	0.00415548	1975.72	0.0286629
0.815256	283.55	0.0066315	1955.83	0.0457416
0.809253	282.288	0.00586193	1947.12	0.0404334
0.804008	283.486	0.00578829	1955.38	0.0399255
0.794536	281.856	0.00611795	1944.14	0.0421993
0.787014	282.149	0.0042913	1946.16	0.0295998
0.78353	280.779	0.00500412	1936.71	0.0345165
0.777609	285.646	0.00540635	1970.28	0.037291
0.771359	281.62	0.00489687	1942.51	0.0337768
0.765564	284.068	0.00487322	1959.4	0.0336137
0.760559	285.098	0.00523058	1966.5	0.0360786
0.75532	286.282	0.00508608	1974.67	0.0350819
0.749843	283.584	0.00431407	1956.05	0.0297569
0.744591	281.85	0.0061897	1944.1	0.0426942
0.734358	286.093	0.00541334	1973.36	0.0373392
0.730829	285.523	0.00710211	1969.43	0.0489877
0.724829	281.934	0.00482746	1944.68	0.033298
0.719095	280.627	0.00529262	1935.66	0.0365065
0.712593	285.696	0.00506482	1970.63	0.0349352
0.706591	284.191	0.00551697	1960.24	0.038054
0.701879	282.156	0.00412924	1946.21	0.028482
0.696884	281.778	0.00563129	1943.6	0.0388425
0.691108	282.318	0.00550721	1947.33	0.0379867
0.686095	282.036	0.00636424	1945.38	0.0438982
0.681102	282.44	0.00600521	1948.17	0.0414217
0.675354	279.839	0.00579663	1930.22	0.039983
0.669858	279.644	0.00498779	1928.88	0.0344039
0.663611	283.542	0.0051317	1955.77	0.0353965
0.652865	280.362	0.00474742	1933.84	0.0327459
0.65013	281.089	0.00482269	1938.85	0.0332651
0.644421	281.971	0.00533408	1944.93	0.0367925
0.633885	277.007	0.00466344	1910.69	0.0321667
0.630898	281.279	0.00605807	1940.16	0.0417864
0.626145	281.769	0.00578087	1943.54	0.0398743
0.621162	282.56	0.00410075	1948.99	0.0282854
0.615166	282.18	0.00511735	1946.37	0.0352976
0.609899	278.741	0.00632118	1922.65	0.0436012
0.604881	282.442	0.00502205	1948.18	0.0346403
0.599132	283.818	0.00554126	1957.67	0.0382215
0.593638	279.032	0.00573965	1924.66	0.03959
0.588153	280.093	0.00425876	1931.98	0.0293753
0.582412	281.374	0.00539509	1940.82	0.0372133
0.577154	284.103	0.00545003	1959.64	0.0375923
0.571413	279.722	0.0045599	1929.42	0.0314525
0.565177	276.766	0.00494281	1909.03	0.0340937
0.560177	279.596	0.00517544	1928.55	0.0356983
0.555179	282.653	0.00641176	1949.63	0.0442259
0.549435	281.503	0.00535344	1941.7	0.036926
0.543947	280.024	0.00532405	1931.5	0.0367233
0.538242	280.492	0.00527163	1934.73	0.0363618
0.531988	280.627	0.0061614	1935.66	0.042499
0.525954	280.545	0.00537313	1935.09	0.0370619
0.520712	279.832	0.00582241	1930.18	0.0401608
0.515214	277.928	0.00462221	1917.04	0.0318823
0.509221	279.221	0.00466276	1925.96	0.032162
0.503975	275.821	0.00453565	1902.51	0.0312852
0.4984625	276.848	0.00543698	1909.59	0.0375023
0.492477	279.928	0.00573274	1930.84	0.0395423
0.486473	280.021	0.00462873	1931.48	0.0319273
0.480717	281.345	0.00464801	1940.62	0.0320603
0.475492	277.99	0.00484734	1917.47	0.0334351
0.470244	276.266	0.00503281	1905.58	0.0347145
0.46522	277.479	0.00372416	1913.95	0.0256879
0.459726	277.996	0.0063066	1917.51	0.0435006
0.454242	277.012	0.00539879	1910.72	0.0372388
0.449234	274.599	0.00573381	1894.08	0.0395497
0.443692	273.808	0.00543238	1888.63	0.0374705
0.437929	274.519	0.00539343	1893.53	0.0372019
0.431965	277.017	0.00556567	1910.76	0.0383899
0.421982	277.33	0.00539162	1912.92	0.0371894
0.41821	273.468	0.00534004	1886.28	0.0368336
0.411683	276.238	0.00511544	1905.39	0.0352844
0.406185	273.606	0.0049789	1887.23	0.0343426
0.400697	277.67	0.00517798	1915.26	0.0357158
0.394989	277.587	0.00593113	1914.69	0.0409107
0.389744	275.666	0.00508323	1901.44	0.0350622
0.384216	275.176	0.00445854	1898.06	0.0307534
0.378469	275.954	0.00527514	1903.43	0.036386
0.372962	276.985	0.00477692	1910.54	0.0329495
0.367472	276.014	0.00508794	1903.84	0.0350947
0.361984	269.364	0.00494279	1857.97	0.0340935
0.357226	275.74	0.00445237	1901.95	0.0307108
0.352211	272.705	0.00651635	1881.02	0.0449474
0.346201	273.55	0.00584103	1886.85	0.0402893
0.340728	272.292	0.0049945	1878.17	0.0344502
0.33528	274.975	0.00541637	1896.68	0.0373601
0.32955	271.66	0.00531673	1873.81	0.0366728
0.324023	271.956	0.00560475	1875.85	0.0386595
0.318033	271.78	0.00466819	1874.64	0.0321994
0.31226	270.403	0.00440763	1865.14	0.0304022
0.307244	267.281	0.00483272	1843.6	0.0333343
0.30153	268.047	0.00535337	1848.89	0.0369256
0.295033	268.182	0.00374046	1849.82	0.0258003
0.289543	270.063	0.00437606	1862.79	0.0301845
0.284033	268.429	0.00479801	1851.52	0.0330949
0.277749	267.138	0.00572814	1842.62	0.0395106
0.272259	266.727	0.00573037	1839.79	0.039526
0.266784	269.584	0.00487723	1859.49	0.0336413
0.260533	268.023	0.00531846	1848.72	0.0366847
0.254265	269.27	0.00492541	1857.33	0.0339737
0.248268	263.854	0.00516315	1819.97	0.0356135
0.242516	265.522	0.00485182	1831.47	0.0334661
0.236756	264.076	0.00426025	1821.5	0.0293856
0.230521	261.411	0.00397447	1803.11	0.0274145
0.225259	262.136	0.00512204	1808.12	0.0353299
0.215555	264.353	0.00565545	1823.41	0.0390092
0.212537	260.356	0.00510184	1795.84	0.0351906
0.207085	263.084	0.00420832	1814.66	0.0290275
0.201603	257.72	0.00535822	1777.66	0.036959
0.195798	256.715	0.00425783	1770.73	0.0293689
0.190561	257.709	0.00506214	1777.58	0.0349168
0.185588	261.37	0.00425964	1802.83	0.0293814
0.175323	257.16	0.00499974	1773.8	0.0344864
0.172545	250.545	0.00343148	1728.17	0.0236691
0.16756	254.158	0.00438254	1753.09	0.0302291
0.162053	250.474	0.00426075	1727.68	0.0293891
0.156537	252.261	0.00445522	1740	0.0307305
0.151545	245.194	0.00549158	1691.25	0.0378789
0.146044	252.128	0.00534649	1739.09	0.0368781
0.14077	250.513	0.00412417	1727.94	0.028447
0.136014	247.129	0.00490855	1704.6	0.0338573
0.130291	242.417	0.00476706	1672.1	0.0328814
0.125045	238.153	0.00401114	1642.69	0.0276674
0.115545	236.904	0.00396846	1634.08	0.027373
0.112303	234.314	0.0041217	1616.21	0.02843
0.106807	234.377	0.00337584	1616.65	0.0232853
0.101556	233.003	0.0042568	1607.17	0.0293618
0.0958107	225.392	0.00455309	1554.67	0.0314055
0.0903022	227.531	0.00389716	1569.42	0.0268812
0.0848216	223.918	0.00372859	1544.5	0.0257185
0.079089	214.433	0.00357835	1479.08	0.0246821
0.0733357	209.611	0.00376385	1445.82	0.0259616
0.067817	201.819	0.00307387	1392.07	0.0212024
0.0625622	197.361	0.00436389	1361.32	0.0301005
0.0568373	193.454	0.00331364	1334.37	0.0228563
0.0515857	182.505	0.00279869	1258.85	0.0193043
0.0463278	173.586	0.00296976	1197.33	0.0204843
0.0403296	163.374	0.00280263	1126.89	0.0193315
0.035326	150.925	0.00247451	1041.03	0.0170682
0.0303299	137.247	0.00223639	946.676	0.0154258
0.0243372	105.672	0.0022254	728.885	0.01535
0.0183405	83.7275	0.00180561	577.521	0.0124544
0.0123265	60.1395	0.00162354	414.82	0.0111986
0.00633786	34.9529	0.00131057	241.092	0.00903981
0.00110261	8.03946	0.000707839	55.4532	0.00488241
-0.00412121	-19.1658	0.00133836	-132.199	0.00923154
-0.0100964	-46.087	0.00143333	-317.891	0.00988655
-0.0156098	-69.5484	0.00191534	-479.719	0.0132113
-0.0208839	-111.561	0.00195104	-769.509	0.0134575
-0.0266444	-128.477	0.00241319	-886.189	0.0166453
-0.032134	-144.24	0.00243145	-994.914	0.0167713
-0.037375	-156.82	0.00261293	-1081.69	0.018023
-0.0473584	-168.555	0.00314831	-1162.63	0.0217159
-0.0498482	-176.934	0.00298085	-1220.43	0.0205608
-0.0553305	-195.062	0.00383511	-1345.46	0.0264532
-0.0618226	-195.5	0.00383274	-1348.49	0.0264368
-0.0680561	-204.127	0.00359407	-1407.99	0.0247906
-0.073291	-207.366	0.00378349	-1430.33	0.0260971
-0.0782808	-213.278	0.00399666	-1471.11	0.0275675
-0.0837549	-218.443	0.00418109	-1506.74	0.0288396
-0.0892453	-225.828	0.00376089	-1557.68	0.0259413
-0.0952205	-228.284	0.00387301	-1574.62	0.0267146
-0.101434	-231.045	0.00354502	-1593.66	0.0244522
-0.106934	-232.158	0.00457075	-1601.34	0.0315274
-0.112421	-237.442	0.00424717	-1637.79	0.0292954
-0.118633	-240.124	0.00382644	-1656.29	0.0263933
-0.124126	-241.772	0.00445227	-1667.65	0.0307101
-0.129616	-244.722	0.00427874	-1688	0.0295132
-0.135593	-247.015	0.00418873	-1703.82	0.0288923
-0.141327	-245.651	0.00469153	-1694.41	0.0323604
-0.146828	-252.581	0.00413995	-1742.21	0.0285558
-0.152308	-249.435	0.00355081	-1720.51	0.0244921
-0.158008	-249.895	0.00423043	-1723.69	0.0291799
-0.162995	-252.321	0.00416346	-1740.42	0.028718
-0.168758	-253.977	0.00425421	-1751.84	0.0293439
-0.174256	-254.863	0.0044463	-1757.95	0.0306689
-0.178954	-253.464	0.00476875	-1748.3	0.032893
-0.184943	-259.214	0.00500158	-1787.96	0.0344991
-0.191693	-260.362	0.0046312	-1795.88	0.0319443
-0.197657	-261.789	0.00417637	-1805.73	0.028807
-0.202892	-259.159	0.00528175	-1787.58	0.0364315
-0.208608	-260.438	0.00377557	-1796.4	0.0260425
-0.213845	-262.848	0.003833	-1813.03	0.0264386
-0.219102	-264.691	0.0050934	-1825.74	0.0351324
-0.224819	-262.376	0.00419821	-1809.77	0.0289577
-0.230056	-261.91	0.0039152	-1806.56	0.0270056
-0.235309	-264.59	0.00464015	-1825.05	0.032006
-0.240773	-264.141	0.00391538	-1821.94	0.0270068
-0.246247	-261.641	0.00490483	-1804.71	0.0338317
-0.251731	-266.639	0.00511663	-1839.18	0.0352926
-0.257485	-270.217	0.00480699	-1863.86	0.0331568
-0.263244	-265.417	0.00474949	-1830.75	0.0327602
-0.268466	-269.288	0.00440564	-1857.45	0.0303885
-0.273959	-268.818	0.0038342	-1854.2	0.0264469
-0.279216	-269.982	0.00494305	-1862.24	0.0340953
-0.288181	-267.232	0.00488517	-1843.27	0.0336961
-0.291476	-271.493	0.00610882	-1872.66	0.0421363
-0.297225	-269.291	0.0048247	-1857.47	0.033279
-0.302715	-269.002	0.00419134	-1855.47	0.0289103
-0.308467	-270.443	0.00414325	-1865.42	0.0285786
-0.314214	-273.27	0.00473572	-1884.92	0.0326653
-0.320464	-269.222	0.00520116	-1857	0.0358756
-0.326704	-270.383	0.0043382	-1865	0.0299233
-0.332461	-273.185	0.00546689	-1884.33	0.0377086
-0.337951	-272.729	0.00451196	-1881.18	0.0311218
-0.343437	-273.414	0.00425811	-1885.91	0.0293708
-0.349464	-273.983	0.00441177	-1889.83	0.0304308
-0.355227	-271.042	0.00455416	-1869.55	0.0314129
-0.360976	-274.368	0.00444665	-1892.49	0.0306713
-0.366986	-275.012	0.00431702	-1896.93	0.0297772
-0.372247	-274.102	0.00385508	-1890.65	0.0265909
-0.377251	-272.858	0.00500583	-1882.08	0.0345284
-0.382993	-273.393	0.00426412	-1885.77	0.0294123
-0.38825	-276.324	0.00550188	-1905.98	0.0379499
-0.393255	-272.803	0.00505185	-1881.69	0.0348458
-0.403513	-275.722	0.00504877	-1901.83	0.0348246
-0.406539	-277.069	0.00456052	-1911.12	0.0314568
-0.411794	-271.226	0.00605521	-1870.81	0.0417666
-0.417534	-275.057	0.00439292	-1897.24	0.0303007
-0.42278	-275.43	0.00511031	-1899.81	0.0352491
-0.42827	-273.814	0.00560821	-1888.67	0.0386833
-0.434506	-278.838	0.00547712	-1923.32	0.0377792
-0.440517	-275.156	0.00502324	-1897.93	0.0346484
-0.44604	-274.603	0.00422277	-1894.11	0.0291271
-0.451541	-272.534	0.00606277	-1879.84	0.0418188
-0.457806	-274.808	0.00397852	-1895.52	0.0274424
-0.463318	-279.991	0.00533418	-1931.27	0.0367932
-0.467803	-273.47	0.00666822	-1886.3	0.0459949
-0.473304	-275.297	0.005265	-1898.9	0.036316
-0.479058	-276.667	0.00540575	-1908.35	0.0372869
-0.48431	-276.657	0.00535645	-1908.28	0.0369468
-0.490049	-278.191	0.00371413	-1918.86	0.0256187
-0.496027	-278.992	0.00515496	-1924.39	0.035557
-0.502015	-278.754	0.00481051	-1922.74	0.0331811
-0.507789	-281.345	0.0045343	-1940.61	0.0312759
-0.518045	-278.338	0.00517395	-1919.87	0.035688
-0.521776	-280.77	0.0051109	-1936.65	0.0352531
-0.527521	-282.373	0.00611953	-1947.71	0.0422103
-0.53305	-277.204	0.00651527	-1912.05	0.0449399
-0.539032	-277.531	0.00531941	-1914.31	0.0366913
-0.545013	-282.305	0.00551065	-1947.23	0.0380104
-0.55003	-281.32	0.00494015	-1940.44	0.0340753
-0.555288	-281.267	0.00549803	-1940.07	0.0379234
-0.561777	-277.971	0.00481324	-1917.34	0.0332
-0.567272	-278.556	0.00613018	-1921.38	0.0422837
-0.572506	-278.923	0.00461934	-1923.91	0.0318625
-0.578247	-278.986	0.00497102	-1924.34	0.0342883
-0.583777	-277.992	0.00506191	-1917.48	0.0349152
-0.589277	-277.731	0.00542437	-1915.69	0.0374153
-0.594013	-280.608	0.00486969	-1935.53	0.0335893
-0.59901	-278.421	0.00487074	-1920.44	0.0335966
-0.605261	-284.87	0.00585929	-1964.93	0.0404152
-0.61102	-283.562	0.00486543	-1955.9	0.0335599
-0.616017	-279.689	0.00556723	-1929.19	0.0384007
-0.621747	-282.948	0.0061105	-1951.67	0.0421479
-0.627963	-281.606	0.00528582	-1942.41	0.0364596
-0.633729	-280.491	0.00481437	-1934.72	0.0332077
-0.639248	-281.184	0.00516688	-1939.5	0.0356392
-0.644471	-278.582	0.00575176	-1921.55	0.0396735
-0.650219	-282.276	0.00572535	-1947.04	0.0394914
-0.656523	-283.822	0.00515318	-1957.7	0.0355448
-0.662789	-285.277	0.00613149	-1967.73	0.0422927
-0.6685	-284.317	0.00594274	-1961.12	0.0409908
-0.673723	-276.482	0.00436405	-1907.07	0.0301016
-0.679719	-282.623	0.00488446	-1949.43	0.0336912
-0.685734	-281.362	0.0059191	-1940.73	0.0408277
-0.691472	-285.2	0.00575556	-1967.2	0.0396997
-0.697245	-278.036	0.00430002	-1917.79	0.0296599
-0.702731	-282.464	0.00458273	-1948.33	0.03161
-0.708707	-278.206	0.00567932	-1918.97	0.0391738
-0.71473	-281.964	0.00525345	-1944.89	0.0362364
-0.72045	-281.331	0.00612621	-1940.52	0.0422564
-0.725937	-283.197	0.00537496	-1953.39	0.0370745
-0.731465	-283.373	0.00483606	-1954.6	0.0333574
-0.741958	-287.525	0.00450796	-1983.24	0.0310942
-0.745181	-286.828	0.00640677	-1978.44	0.0441915
-0.750675	-282.044	0.00545592	-1945.43	0.0376329
-0.755947	-281.082	0.00431035	-1938.8	0.0297312
-0.761448	-283.688	0.0067753	-1956.77	0.0467335
-0.766939	-283.045	0.00532288	-1952.34	0.0367152
-0.771951	-282.013	0.00621919	-1945.22	0.0428977
-0.777723	-278.082	0.00570252	-1918.11	0.0393339
-0.7837	-281.34	0.00555188	-1940.58	0.0382948
-0.789415	-286.462	0.00580139	-1975.91	0.0400158
-0.795175	-282.332	0.00548048	-1947.42	0.0378023
-0.800662	-280.49	0.00566557	-1934.71	0.039079
-0.806406	-279.279	0.0048176	-1926.37	0.03323
-0.816656	-285.468	0.0052583	-1969.05	0.0362698
-0.819904	-282.139	0.00558619	-1946.09	0.0385315
-0.825914	-282.818	0.004626	-1950.77	0.0319084
-0.831665	-282.856	0.00520409	-1951.04	0.0358959
-0.837426	-281.28	0.00498965	-1940.17	0.0344167
-0.842941	-281.178	0.00505163	-1939.46	0.0348443
-0.847951	-282.98	0.0047708	-1951.89	0.0329072
-0.853425	-284.885	0.00556349	-1965.03	0.0383749
-0.859627	-286.964	0.00589352	-1979.37	0.0406513
-0.86539	-283.554	0.00536032	-1955.85	0.0369735
-0.875356	-286.593	0.0060319	-1976.81	0.0416058
-0.878613	-281.288	0.00479627	-1940.22	0.0330829
-0.884127	-284.119	0.00396739	-1959.75	0.0273656
-0.889659	-285.216	0.00553106	-1967.31	0.0381512
-0.895415	-285.687	0.00532693	-1970.56	0.0367432
-0.901418	-282.494	0.00573637	-1948.54	0.0395674
-0.90668	-285.605	0.00538159	-1970	0.0371202
-0.91243	-286.411	0.00495067	-1975.56	0.0341479
-0.918923	-281.541	0.00425945	-1941.97	0.0293801
-0.925191	-285.182	0.00519768	-1967.08	0.0358516
-0.931185	-283.75	0.00602374	-1957.2	0.0415496
-0.940404	-281.63	0.0054569	-1942.58	0.0376397
-0.943651	-284.533	0.00525217	-1962.6	0.0362276
-0.949884	-282.738	0.00602828	-1950.23	0.0415808
-0.956162	-285.543	0.00627532	-1969.57	0.0432849
-0.962432	-284.221	0.00544016	-1960.45	0.0375242
-0.968398	-281.74	0.00519771	-1943.34	0.0358519
-0.973394	-285.356	0.00519713	-1968.28	0.0358479
-0.978661	-284.096	0.00520195	-1959.59	0.0358811
-0.984653	-283.792	0.00505673	-1957.49	0.0348795
-0.990177	-286.353	0.00573388	-1975.16	0.0395502
-0.995935	-284.898	0.00502756	-1965.12	0.0346783
-0.998701	-284.421	0.00480332	-1961.83	0.0331315
-0.990193	-282.863	0.00510071	-1951.08	0.0351828
-0.986444	-281.581	0.00547009	-1942.24	0.0377307
-0.980944	-279.881	0.00551552	-1930.51	0.038044
-0.975448	-282.537	0.00600715	-1948.84	0.0414351
-0.969224	-282.227	0.00516241	-1946.7	0.0356084
-0.963216	-286.363	0.00478353	-1975.22	0.032995
-0.957673	-283.954	0.00703519	-1958.61	0.0485261
-0.95195	-283.262	0.00551948	-1953.83	0.0380714
-0.946472	-286.921	0.00548961	-1979.07	0.0378653
-0.940984	-282.942	0.00560958	-1951.63	0.0386928
-0.934994	-284.242	0.00596377	-1960.59	0.0411359
-0.928972	-277.932	0.00516214	-1917.07	0.0356065
-0.923231	-283.468	0.00623185	-1955.26	0.042985
-0.917491	-279.805	0.005578	-1929.99	0.0384749
-0.912239	-282.888	0.006353	-1951.26	0.0438206
-0.907244	-278.156	0.00513612	-1918.62	0.0354271
-0.901494	-283.3	0.00564759	-1954.1	0.038955
-0.896502	-283.015	0.00503645	-1952.13	0.0347396
-0.891238	-282.941	0.00516906	-1951.62	0.0356542
-0.880663	-281.112	0.00470374	-1939.01	0.0324447
-0.877916	-278.661	0.0055609	-1922.1	0.038357
-0.872935	-282.951	0.00480269	-1951.69	0.0331272
-0.867185	-282.455	0.00605315	-1948.27	0.0417524
-0.860924	-281.852	0.00549029	-1944.11	0.03787
-0.855442	-281.468	0.00592514	-1941.46	0.0408694
-0.849951	-278.753	0.00459283	-1922.73	0.0316797
-0.843936	-279.962	0.00547424	-1931.08	0.0377593
-0.838182	-278.721	0.00627533	-1922.51	0.0432849
-0.83294	-279.498	0.00450098	-1927.87	0.0310461
-0.827203	-280.952	0.00479908	-1937.9	0.0331023
-0.821719	-284.322	0.00497848	-1961.15	0.0343397
-0.816484	-280.991	0.00440744	-1938.17	0.0304009
-0.810971	-280.502	0.00536968	-1934.8	0.0370381
-0.806222	-280.834	0.00585556	-1937.09	0.0403895
-0.796703	-278.76	0.00492925	-1922.78	0.0340001
-0.793443	-281.224	0.00675415	-1939.78	0.0465876
-0.787706	-284.759	0.00416663	-1964.16	0.0287399
-0.781988	-281.224	0.00480843	-1939.78	0.0331668
-0.772269	-277.217	0.0047366	-1912.14	0.0326713
-0.769004	-279.525	0.00486202	-1928.06	0.0335364
-0.763507	-278.017	0.00419288	-1917.66	0.0289209
-0.758017	-283.53	0.00536696	-1955.68	0.0370193
-0.752017	-281.582	0.00531325	-1942.25	0.0366488
-0.746512	-285.2	0.00558947	-1967.2	0.0385541
-0.741761	-283.222	0.00573396	-1953.56	0.0395507
-0.736521	-281.711	0.00456904	-1943.14	0.0315155
-0.731263	-284.147	0.00590143	-1959.94	0.0407059
-0.725757	-284.841	0.00535841	-1964.73	0.0369603
-0.715276	-284.597	0.00441501	-1963.04	0.0304531
-0.712269	-282.219	0.0043332	-1946.64	0.0298888
-0.707275	-280.75	0.00511692	-1936.51	0.0352946
-0.701774	-280.608	0.00569114	-1935.53	0.0392554
-0.695265	-283.352	0.00575797	-1954.46	0.0397163
-0.689527	-278.718	0.00530115	-1922.49	0.0365653
-0.684025	-280.507	0.00568488	-1934.83	0.0392122
-0.67776	-280.183	0.00445087	-1932.6	0.0307004
-0.672279	-279.955	0.00613363	-1931.02	0.0423075
-0.667307	-280.703	0.0036291	-1936.19	0.0250322
-0.661571	-280.404	0.00488255	-1934.12	0.033678
-0.656053	-279.447	0.00543994	-1927.52	0.0375227
-0.646792	-280.659	0.00583475	-1935.88	0.040246
-0.643573	-277.561	0.00618665	-1914.51	0.0426732
-0.638071	-281.605	0.00508322	-1942.41	0.0350621
-0.633028	-282.013	0.00590975	-1945.22	0.0407633
-0.627302	-281.32	0.00515225	-1940.44	0.0355383
-0.616336	-281.574	0.00636668	-1942.19	0.043915
-0.613036	-282.21	0.0049507	-1946.58	0.0341481
-0.607784	-275.68	0.00617013	-1901.54	0.0425593
-0.60229	-279.419	0.00614178	-1927.33	0.0423637
-0.596264	-280.888	0.0060121	-1937.46	0.0414692
-0.591297	-277.862	0.00503982	-1916.59	0.0347628
-0.586331	-279.523	0.00501074	-1928.05	0.0345622
-0.580842	-278.859	0.00596916	-1923.46	0.0411731
-0.570571	-277.331	0.00581468	-1912.93	0.0401075
-0.567329	-280.202	0.00539204	-1932.73	0.0371923
-0.561586	-276.879	0.00538774	-1909.81	0.0371627
-0.556331	-275.388	0.0058806	-1899.52	0.0405622
-0.550843	-277.446	0.00496069	-1913.72	0.034217
-0.544875	-281.335	0.0048049	-1940.55	0.0331424
-0.539107	-275.585	0.00526628	-1900.88	0.0363248
-0.533595	-275.882	0.00482941	-1902.93	0.0333115
-0.527867	-277.974	0.00561442	-1917.36	0.0387262
-0.522379	-280.715	0.00568352	-1936.27	0.0392028
-0.517875	-281.723	0.00607979	-1943.22	0.0419361
-0.512366	-276.206	0.00572607	-1905.16	0.0394963
-0.507119	-280.042	0.00533166	-1931.63	0.0367758
-0.501873	-277.814	0.00558401	-1916.26	0.0385165
-0.495113	-278.537	0.0047104	-1921.24	0.0324906
-0.488866	-275.987	0.0049302	-1903.66	0.0340067
-0.483375	-277.433	0.00441744	-1913.63	0.0304699
-0.473132	-273.999	0.00603655	-1889.94	0.0416379
-0.469605	-273.204	0.00384732	-1884.46	0.0265374
-0.463605	-277.239	0.00470677	-1912.29	0.0324655
-0.458359	-275.113	0.00567234	-1897.63	0.0391257
-0.453131	-273.467	0.00402263	-1886.28	0.0277466
-0.447407	-274.147	0.00580188	-1890.96	0.0400192
-0.442138	-275.906	0.00564666	-1903.1	0.0389486
-0.436845	-277.569	0.00632829	-1914.57	0.0436502
-0.431098	-273.968	0.00525737	-1889.73	0.0362634
-0.426116	-270.412	0.0056893	-1865.2	0.0392427
-0.421115	-275.283	0.00560989	-1898.8	0.038695
-0.415136	-275.716	0.0047805	-1901.79	0.0329741
-0.409158	-272.417	0.00487946	-1879.03	0.0336567
-0.4034	-272.148	0.00576357	-1877.18	0.039755
-0.393432	-268.095	0.00436336	-1849.22	0.0300968
-0.389654	-274.205	0.00496885	-1891.36	0.0342733
-0.383632	-272.443	0.00539927	-1879.21	0.0372422
-0.378122	-270.789	0.00410721	-1867.8	0.02833
-0.372118	-273.542	0.00535627	-1886.79	0.0369456
-0.36662	-270.896	0.0046418	-1868.54	0.0320174
-0.361368	-271.011	0.00610808	-1869.33	0.0421313
-0.355637	-271.603	0.00554276	-1873.41	0.0382319
-0.349902	-271.876	0.00592208	-1875.3	0.0408483
-0.344152	-269.105	0.00607809	-1856.19	0.0419244
-0.338171	-271.905	0.00576725	-1875.5	0.0397804
-0.332426	-269.243	0.00590411	-1857.14	0.0407244
-0.327411	-269.295	0.00486268	-1857.5	0.033541
-0.32217	-268.402	0.00378898	-1851.34	0.026135
-0.316176	-275.208	0.00542551	-1898.28	0.0374231
-0.310414	-271.218	0.00522917	-1870.76	0.0360689
-0.305164	-269.701	0.00407149	-1860.3	0.0280836
-0.299912	-269.833	0.00486623	-1861.21	0.0335655
-0.294168	-266.938	0.00507426	-1841.24	0.0350004
-0.288674	-270.16	0.00425123	-1863.46	0.0293234
-0.283422	-265.703	0.00520775	-1832.72	0.0359211
-0.278171	-269.186	0.00443073	-1856.74	0.0305615
-0.273181	-261.256	0.00491954	-1802.05	0.0339331
-0.267451	-270.431	0.00433391	-1865.34	0.0298937
-0.26195	-263.473	0.00625139	-1817.34	0.0431198
-0.256702	-263.588	0.00533179	-1818.13	0.0367767
-0.250955	-265.568	0.0051237	-1831.79	0.0353414
-0.245947	-265.725	0.0047388	-1832.87	0.0326865
-0.240674	-262.854	0.00530492	-1813.07	0.0365914
-0.234905	-262.461	0.00514103	-1810.36	0.0354609
-0.229172	-260.867	0.0043903	-1799.36	0.0302826
-0.223182	-262.245	0.00532547	-1808.87	0.0367331
-0.217192	-261.714	0.00500887	-1805.21	0.0345493
-0.211706	-261.815	0.00507801	-1805.9	0.0350262
-0.206682	-258.81	0.00511284	-1785.18	0.0352665
-0.201423	-257.126	0.00483924	-1773.56	0.0333793
-0.195958	-256.618	0.00526365	-1770.06	0.0363067
-0.190457	-258.161	0.00421457	-1780.7	0.0290706
-0.184686	-256.062	0.00491548	-1766.22	0.0339052
-0.178929	-254.293	0.0045151	-1754.02	0.0311435
-0.173921	-254.753	0.00441637	-1757.19	0.0304625
-0.164193	-255.319	0.00417257	-1761.1	0.0287808
-0.156195	-248.489	0.00349521	-1713.98	0.0241087
-0.153217	-250.26	0.00546164	-1726.2	0.0376724
-0.148195	-246.293	0.00478726	-1698.84	0.0330207
-0.142428	-248.131	0.00420993	-1711.51	0.0290385
-0.136187	-247.125	0.00526186	-1704.58	0.0362943
-0.130946	-244.407	0.0040802	-1685.83	0.0281437
-0.126189	-243.855	0.00487916	-1682.02	0.0336546
-0.116442	-238.329	0.00411856	-1643.9	0.0284083
-0.113702	-235.115	0.00507086	-1621.74	0.0349769
-0.108707	-232.801	0.00518513	-1605.78	0.0357651
-0.102929	-229.993	0.00461098	-1586.41	0.0318048
-0.0966819	-227.435	0.0037532	-1568.76	0.0258882
-0.0916939	-225.712	0.00459115	-1556.88	0.0316681
-0.0864509	-220.479	0.00362826	-1520.78	0.0250264
-0.0807211	-213.08	0.00420593	-1469.75	0.029011
-0.0749764	-210.734	0.00358787	-1453.56	0.0247478
-0.0689657	-204.699	0.0033738	-1411.93	0.0232712
-0.0634458	-197.209	0.00382432	-1360.28	0.0263787
-0.0579431	-192.681	0.00411522	-1329.04	0.0283853
-0.052694	-184.948	0.00329764	-1275.7	0.0227459
-0.0471802	-174.945	0.00294888	-1206.71	0.0203403
-0.0419555	-164.109	0.00298697	-1131.96	0.020603
-0.036732	-154.385	0.00285813	-1064.89	0.0197143
-0.031217	-140.389	0.00263551	-968.355	0.0181788
-0.0264557	-127.839	0.00240268	-881.788	0.0165728
-0.0209515	-88.6302	0.00159751	-611.338	0.0110191
-0.0144492	-66.0722	0.00182616	-455.741	0.0125962
-0.00895701	-40.9974	0.00125271	-282.785	0.00864074
-0.00395872	-15.1373	0.0012693	-104.412	0.00875513
0.00128952	12.3281	0.0013104	85.0349	0.00903869
0.0062767	38.8676	0.00144489	268.094	0.00996628
0.0115115	63.7763	0.00132696	439.905	0.00915286
0.0172618	86.3941	0.00182352	595.915	0.012578
0.0227505	105.818	0.00209067	729.894	0.0144207
0.0279759	122.553	0.00211575	845.325	0.0145937
0.03299	140.371	0.00295336	968.229	0.0203712
0.037739	153.249	0.00262928	1057.06	0.0181358
0.047677	174.493	0.00395515	1203.59	0.0272812
0.050967	183.541	0.00335429	1266	0.0231367
0.0562321	192.111	0.00363542	1325.11	0.0250757
0.0614455	199.059	0.00372683	1373.04	0.0257063
0.0671862	204.783	0.00418775	1412.52	0.0288856
0.0724581	208.9	0.00395748	1440.92	0.0272972
0.0776876	214.982	0.00396386	1482.87	0.0273412
0.083414	217.656	0.0036173	1501.31	0.0249508
0.0883708	219.793	0.00416638	1516.05	0.0287382
0.0933539	223.107	0.00397965	1538.91	0.0274501
0.0986214	225.453	0.00393279	1555.09	0.0271269
0.103578	229.466	0.00432336	1582.77	0.0298209
0.109052	229.339	0.00413881	1581.9	0.028548
0.114273	237.31	0.00443963	1636.87	0.0306229
0.119753	239.454	0.00512125	1651.67	0.0353245
0.125774	243.009	0.00500162	1676.19	0.0344993
0.131503	240.938	0.00403157	1661.9	0.0278083
0.136958	247.196	0.00529591	1705.06	0.0365292
0.146195	246.221	0.00445043	1698.34	0.0306974
0.153163	247.375	0.00447688	1706.3	0.0308798
0.156165	248.641	0.00388862	1715.04	0.0268223
0.161402	251.867	0.00482999	1737.28	0.0333155
0.166628	251.357	0.00466235	1733.77	0.0321592
0.172111	251.221	0.00438551	1732.83	0.0302496
0.177372	253.135	0.00438336	1746.03	0.0302348
0.182839	254.031	0.00455238	1752.21	0.0314006
0.189046	260.942	0.00518749	1799.88	0.0357814
0.195071	258.094	0.00415044	1780.24	0.0286282
0.200833	257.911	0.00402017	1778.97	0.0277297
0.206546	257.216	0.00365758	1774.18	0.0252286
0.211519	258.751	0.00490188	1784.77	0.0338114
0.216244	257.131	0.00383811	1773.59	0.0264739
0.221957	262.983	0.00519033	1813.96	0.035801
0.227699	262.603	0.00430641	1811.33	0.029704
0.233168	261.019	0.00513692	1800.41	0.0354326
0.238651	262.437	0.00358297	1810.19	0.024714
0.244663	267.363	0.00535664	1844.17	0.0369481
0.25064	267.353	0.00530975	1844.1	0.0366247
0.256364	264.665	0.00571619	1825.56	0.0394281
0.262102	263.777	0.00478576	1819.44	0.0330104
0.267341	264.815	0.00401747	1826.59	0.027711
0.273085	265.746	0.0046139	1833.02	0.0318249
0.279102	265.85	0.00557162	1833.74	0.038431
0.284862	268.625	0.00518851	1852.88	0.0357884
0.290345	270.575	0.00481489	1866.33	0.0332113
0.29632	272.088	0.0046788	1876.76	0.0322726
0.302567	270.296	0.00473753	1864.4	0.0326777
0.308079	268.422	0.00497399	1851.48	0.0343087
0.313337	270.631	0.0055014	1866.72	0.0379466
0.319084	271.747	0.00569211	1874.41	0.0392621
0.324839	271.565	0.00444276	1873.16	0.0306445
0.330834	270.265	0.00494943	1864.19	0.0341394
0.336826	268.36	0.00402927	1851.05	0.0277924
0.341826	272.666	0.00504599	1880.75	0.0348054
0.351074	270.165	0.00458246	1863.5	0.0316081
0.358324	270.941	0.00633766	1868.85	0.0437148
0.361358	274.798	0.00509733	1895.45	0.0351595
0.366368	271.592	0.00424333	1873.34	0.0292689
0.371354	266.825	0.00462428	1840.46	0.0318966
0.377082	271.756	0.00506573	1874.47	0.0349416
0.382851	273.848	0.0041357	1888.9	0.0285265
0.388605	276.239	0.00495996	1905.39	0.034212
0.393863	274.445	0.00569033	1893.02	0.0392498
0.398878	274.185	0.00477908	1891.23	0.0329643
0.404637	271.23	0.0060739	1870.85	0.0418955
0.410403	272.287	0.0049178	1878.14	0.0339211
0.415376	272.266	0.00507157	1877.99	0.0349818
0.420607	276.055	0.0052664	1904.12	0.0363256
0.426631	273.286	0.00563126	1885.03	0.0388423
0.432631	279.001	0.00498391	1924.44	0.0343771
0.438368	275.229	0.00507959	1898.42	0.0350371
0.444653	274.74	0.00578641	1895.05	0.0399125
0.450436	277.059	0.00607717	1911.05	0.0419181
0.459928	276.175	0.00586616	1904.95	0.0404626
0.463187	280.774	0.00554889	1936.68	0.0382742
0.468666	276.185	0.00533698	1905.02	0.0368125
0.47416	274.598	0.00571988	1894.08	0.0394536
0.479919	276.013	0.00497097	1903.84	0.0342879
0.485414	276.785	0.00398302	1909.16	0.0274734
0.490428	277.199	0.00481562	1912.01	0.0332164
0.495689	271.925	0.00494318	1875.63	0.0340962
0.505924	280.364	0.00484518	1933.84	0.0334203
0.509155	274.313	0.00516201	1892.11	0.0356057
0.514915	279.988	0.00565858	1931.25	0.0390308
0.520424	274.219	0.00471711	1891.46	0.0325369
0.526181	279.285	0.00459518	1926.41	0.0316959
0.531675	278.306	0.00486356	1919.65	0.033547
0.536922	279.413	0.00578418	1927.29	0.0398972
0.542418	280.136	0.00523237	1932.28	0.036091
0.547673	278.436	0.00455055	1920.55	0.031388
0.553178	277.151	0.00582944	1911.68	0.0402093
0.559404	279.011	0.00557531	1924.51	0.0384564
0.56512	277.6	0.00575143	1914.78	0.0396712
0.570382	276.151	0.00581878	1904.79	0.0401358
0.576141	279.101	0.00570851	1925.13	0.0393752
0.58238	278.439	0.00578138	1920.57	0.0398778
0.588127	275.196	0.0047204	1898.2	0.0325595
0.594146	281.583	0.0051392	1942.26	0.0354483
0.600651	280.281	0.00706144	1933.27	0.0487072
0.605615	275.913	0.00503651	1903.15	0.03474
0.614381	278.853	0.00463003	1923.42	0.0319362
0.617378	279.606	0.00637655	1928.62	0.0439831
0.622632	279.915	0.00474162	1930.75	0.032706
0.627898	277.592	0.00485226	1914.73	0.0334691
0.633379	280.265	0.00467326	1933.16	0.0322344
0.638377	277.272	0.00462016	1912.52	0.0318681
0.643377	280.285	0.00519017	1933.3	0.0357998
0.648861	281.025	0.00501216	1938.4	0.034572
0.654359	281.233	0.00539149	1939.84	0.0371885
0.660342	277.31	0.00490577	1912.78	0.0338382
0.666809	280.209	0.0055526	1932.77	0.0382998
0.672062	282.702	0.00552144	1949.97	0.0380848
0.68159	283.133	0.00511278	1952.95	0.035266
0.685071	275.088	0.00476591	1897.46	0.0328735
0.690555	278.684	0.00598555	1922.26	0.0412861
0.695815	275.774	0.00548765	1902.19	0.0378518
0.70183	284.077	0.00553731	1959.45	0.0381943
0.70756	282.025	0.00548563	1945.31	0.0378378
0.712807	282.474	0.00593065	1948.4	0.0409074
0.718834	280.851	0.00375151	1937.21	0.0258766
0.724844	281.853	0.00635325	1944.12	0.0438224
0.730105	277.174	0.0063086	1911.84	0.0435144
0.735845	282.429	0.00607999	1948.09	0.0419375
0.742053	279.762	0.00614545	1929.7	0.042389
0.747563	278.277	0.00592577	1919.45	0.0408738
0.752836	282.905	0.00628623	1951.37	0.0433601
0.758585	281.348	0.00586689	1940.63	0.0404676
0.764572	279.781	0.00547402	1929.83	0.0377578
0.773799	285.438	0.00595112	1968.85	0.0410486
0.777297	282.82	0.00437065	1950.78	0.0301471
0.783032	282.357	0.0052217	1947.59	0.0360174
0.788008	283.8	0.00386155	1957.55	0.0266356
0.793237	283.176	0.00674339	1953.25	0.0465134
0.799003	280.749	0.00452269	1936.5	0.0311959
0.804771	283.444	0.00605709	1955.09	0.0417795
0.81027	283.066	0.00529092	1952.48	0.0364948
0.815755	281.328	0.00612646	1940.5	0.042258
0.821237	281.886	0.00497686	1944.35	0.0343285
0.830755	281.451	0.00513811	1941.34	0.0354408
0.838496	280.799	0.00584888	1936.85	0.0403434
0.841256	279.197	0.00612592	1925.8	0.0422543
0.846283	282.066	0.00489674	1945.58	0.0337759
0.852287	285.42	0.00550662	1968.72	0.0379826
0.857746	283.226	0.00645659	1953.59	0.0445351
0.8629875	281.844	0.0056417	1944.06	0.0389144
0.869239	281.146	0.00534759	1939.24	0.0368857
0.87524	281.631	0.0043961	1942.58	0.0303227
0.880999	281.935	0.00487785	1944.68	0.0336456
0.886763	283.732	0.00514375	1957.08	0.0354797
0.89177	283.237	0.00584825	1953.67	0.0403391
0.897015	277.218	0.00603012	1912.15	0.0415935
0.902756	283.588	0.00471348	1956.09	0.0325119
0.908288	282.583	0.00662776	1949.16	0.0457159
0.913801	283.784	0.00588515	1957.44	0.0405936
0.919787	281.919	0.00640302	1944.57	0.0441656
0.925296	280.439	0.0055031	1934.36	0.0379583
0.930308	286.728	0.00619629	1977.75	0.0427397
0.9363	279.216	0.00468175	1925.93	0.0322929
0.94175	280.852	0.00533179	1937.21	0.0367767
0.946748	283.754	0.00663113	1957.23	0.0457391
0.952521	282.599	0.00465692	1949.26	0.0321217
0.957509	286.262	0.0056334	1974.53	0.0388571
0.962515	281.723	0.0054499	1943.22	0.0375914
0.968771	284.551	0.00545875	1962.73	0.0376524
0.97503	283.013	0.00639767	1952.12	0.0441288
0.981034	281.179	0.0061665	1939.47	0.0425342
0.987016	282.238	0.0057319	1946.77	0.0395365
0.992257	284.706	0.00564754	1963.8	0.0389546
0.997237	284.679	0.00482265	1963.61	0.0332649