File: data/monolayers/nanoparticles/Ac_CoFe_C/vsm/AH11_10K_LangevinSAXSscaled.xye
#Executed at: 2018-11-09 13:19:57.8772
#Loaded File	 = ./AH11_HYST_100OE_10K.DAT
#Rescale Factor	 = 0.144977
#[[Data]]
#B/T	M/kAm-1	sM/kAm-1	M_raw/memu	sM_raw/memu
1.97909e-05	136.869	5.82531e-05	944.071	0.000401808
0.0386665	140.768	5.26774e-05	970.963	0.000363349
0.0822629	145.982	5.47092e-05	1006.93	0.000377364
0.12888	151.678	5.2544e-05	1046.22	0.000362429
0.175005	156.799	5.71471e-05	1081.54	0.00039418
0.220883	161.974	5.29037e-05	1117.24	0.00036491
0.265265	167.061	6.22703e-05	1152.32	0.000429517
0.31065	172.089	6.20578e-05	1187.01	0.000428052
0.355502	177.205	5.1976e-05	1222.3	0.000358511
0.402891	182.28	6.12805e-05	1257.3	0.00042269
0.450555	188.068	5.21318e-05	1297.22	0.000359586
0.495993	193.13	5.88332e-05	1332.14	0.00040581
0.543682	198.893	6.21488e-05	1371.89	0.000428679
0.58734	203.514	6.44581e-05	1403.77	0.000444608
0.631828	208.676	6.62999e-05	1439.37	0.000457312
0.679278	214.573	5.591e-05	1480.04	0.000385646
0.72229	219.821	7.12298e-05	1516.25	0.000491317
0.769504	225.221	6.68624e-05	1553.49	0.000461192
0.815957	230.658	6.35922e-05	1590.99	0.000438635
0.861195	236.137	8.09853e-05	1628.78	0.000558607
0.905721	241.716	7.67142e-05	1667.27	0.000529146
0.954978	247.928	7.95887e-05	1710.11	0.000548973
0.999444	253.604	7.76619e-05	1749.26	0.000535683
1.0432	259.538	6.03091e-05	1790.2	0.00041599
1.08913	265.418	8.24467e-05	1830.76	0.000568687
1.13459	271.429	8.32665e-05	1872.22	0.000574341
1.17984	277.604	8.85939e-05	1914.81	0.000611088
1.22453	283.745	8.97869e-05	1957.17	0.000619317
1.26702	290.257	9.03141e-05	2002.09	0.000622953
1.31551	296.773	8.89385e-05	2047.03	0.000613465
1.36377	304.475	9.59924e-05	2100.16	0.00066212
1.40547	310.585	9.35866e-05	2142.3	0.000645526
1.44994	317.709	9.18451e-05	2191.44	0.000633513
1.49543	325.116	9.75546e-05	2242.53	0.000672895
1.54041	332.794	0.000111275	2295.49	0.000767534
1.58386	340.37	0.00010792	2347.75	0.000744395
1.62757	348.552	0.000115424	2404.18	0.00079615
1.67807	356.893	0.000118941	2461.71	0.000820412
1.72104	366.124	9.61129e-05	2525.39	0.000662951
1.76554	373.989	0.000106485	2579.64	0.000734493
1.81174	384.169	0.000114273	2649.85	0.00078821
1.8555	392.318	0.000108536	2706.06	0.000748639
1.9032	402.701	0.000116724	2777.69	0.000805122
1.94669	412.524	0.000114173	2845.44	0.00078752
1.9949	422.322	0.000122568	2913.02	0.000845429
2.03737	432.572	0.000104916	2983.72	0.000723674
2.07932	441.664	0.000113673	3046.44	0.000784072
2.12581	453.21	0.000135795	3126.07	0.000936665
2.16777	462.347	0.000128613	3189.1	0.000887122
2.21477	473.27	0.000136518	3264.44	0.000941651
2.25802	483.67	0.000149663	3336.18	0.00103232
2.30724	495.676	0.000156618	3418.99	0.00108029
2.35295	506.122	0.000148807	3491.04	0.00102641
2.39469	516.764	0.000153592	3564.45	0.00105942
2.44317	527.209	0.000143111	3636.49	0.000987129
2.48914	537.593	0.000142041	3708.11	0.000979747
2.53237	547.791	0.000157174	3778.46	0.00108413
2.58206	557.802	0.000115187	3847.51	0.00079452
2.6238	567.623	0.000130931	3915.26	0.000903113
2.6695	577.202	0.000150908	3981.32	0.00104091
2.71759	587.4	0.00015939	4051.67	0.00109941
2.7618	596.781	0.000148945	4116.37	0.00102737
2.80751	605.542	0.000161463	4176.8	0.00111371
2.85149	613.896	0.00015304	4234.43	0.00105561
2.89998	623.022	0.000157813	4297.37	0.00108853
2.94466	631.121	0.000125667	4353.24	0.000866805
2.99017	638.72	0.000143326	4405.65	0.000988612
3.03387	645.087	0.000184912	4449.57	0.00127545
3.07837	652.132	0.00017112	4498.17	0.00118032
3.12233	659.302	0.000174894	4547.62	0.00120636
3.16759	665.699	0.000179324	4591.74	0.00123691
3.21457	672.957	0.000173027	4641.81	0.00119348
3.26253	679.039	0.000154337	4683.76	0.00106456
3.30775	685.338	0.000154253	4727.21	0.00106398
3.35997	692.061	0.000178098	4773.58	0.00122846
3.40595	697.074	0.000180821	4808.16	0.00124724
3.45116	703.034	0.000196564	4849.27	0.00135582
3.49539	708.126	0.000177857	4884.39	0.00122679
3.54086	712.805	0.000144803	4916.67	0.000998796
3.58683	717.54	0.000177344	4949.32	0.00122326
3.63132	722.484	0.000174953	4983.42	0.00120676
3.67728	726.782	0.000146658	5013.07	0.00101159
3.72276	731.374	0.000196577	5044.75	0.00135591
3.7705	735.74	0.000161475	5074.86	0.0011138
3.81745	739.77	0.000179841	5102.66	0.00124047
3.86344	743.905	0.000155814	5131.18	0.00107475
3.91038	747.874	0.000162176	5158.56	0.00111863
3.95785	751.998	0.000169619	5187	0.00116997
4.00135	755.266	0.00016065	5209.54	0.0011081
4.0461	758.799	0.000207721	5233.91	0.00143278
4.09159	762.118	0.0001562	5256.81	0.00107741
4.1413	766.003	0.000202039	5283.61	0.00139359
4.18428	768.856	0.00018486	5303.28	0.00127509
4.23174	771.95	0.000188061	5324.62	0.00129718
4.27672	774.921	0.000194908	5345.12	0.00134441
4.32343	778.659	0.000207207	5370.9	0.00142924
4.3694	781.466	0.000158159	5390.26	0.00109092
4.41537	783.95	0.000189395	5407.4	0.00130638
4.46091	786.856	0.000223105	5427.44	0.00153889
4.50963	789.488	0.000258263	5445.6	0.0017814
4.55415	792.022	0.000180516	5463.07	0.00124513
4.59958	794.963	0.000208938	5483.36	0.00144118
4.64406	797.359	0.000196105	5499.89	0.00135266
4.68778	799.467	0.000235135	5514.43	0.00162188
4.73352	801.65	0.000246754	5529.48	0.00170202
4.78074	804.197	0.000233586	5547.05	0.00161119
4.82647	806.21	0.000187866	5560.94	0.00129583
4.87045	808.423	0.000216483	5576.2	0.00149322
4.91593	810.798	0.000210549	5592.58	0.00145229
4.96193	813.149	0.000201174	5608.8	0.00138763
5.00565	815.046	0.000257155	5621.89	0.00177376
5.05111	817.049	0.000259106	5635.7	0.00178722
5.10108	819.224	0.000260306	5650.7	0.00179549
5.14377	821.326	0.000190179	5665.2	0.00131178
5.19426	822.961	0.000221003	5676.48	0.0015244
5.24823	825.121	0.00025684	5691.38	0.00177159
5.2937	826.999	0.000227187	5704.33	0.00156705
5.3447	829.082	0.000227254	5718.7	0.00156751
5.39592	831.326	0.000199052	5734.18	0.00137299
5.45114	833.238	0.000231121	5747.37	0.00159419
5.50308	835.177	0.000311379	5760.74	0.00214777
5.55735	837.02	0.000258737	5773.46	0.00178467
5.60354	838.214	0.000240365	5781.69	0.00165795
5.656	840.376	0.000207225	5796.6	0.00142936
5.70798	841.569	0.000249595	5804.83	0.00172162
5.75868	843.69	0.0002272	5819.46	0.00156714
5.80873	845.499	0.000275395	5831.94	0.00189957
5.85796	846.746	0.000252811	5840.54	0.0017438
5.90591	848.246	0.000234996	5850.89	0.00162092
5.95963	849.62	0.000193469	5860.36	0.00133448
6.00585	851.106	0.000231271	5870.61	0.00159522
6.05884	852.901	0.000220361	5882.99	0.00151997
6.11481	854.402	0.000209266	5893.35	0.00144344
6.16473	855.351	0.000250524	5899.89	0.00172802
6.20998	856.232	0.00027308	5905.97	0.0018836
6.26077	857.416	0.000235495	5914.14	0.00162436
6.31124	859.19	0.00030993	5926.37	0.00213778
6.35872	860.233	0.000264882	5933.57	0.00182706
6.4077	861.359	0.000208643	5941.34	0.00143914
6.45969	862.1	0.000251375	5946.45	0.00173389
6.50538	863.349	0.000235637	5955.06	0.00162534
6.55835	864.528	0.00024489	5963.19	0.00168916
6.61236	866.129	0.000251994	5974.23	0.00173816
6.66005	867.027	0.000256337	5980.43	0.00176811
6.71205	867.535	0.000235603	5983.93	0.0016251
6.76303	868.905	0.000244503	5993.39	0.00168649
6.80874	870.266	0.000290163	6002.77	0.00200143
6.86295	871.058	0.000194094	6008.23	0.00133879
6.91421	872.063	0.000273122	6015.17	0.0018839
6.96468	872.771	0.000337077	6020.05	0.00232503
7.01735	873.598	0.000275865	6025.75	0.00190281
7.06536	874.318	0.000253862	6030.72	0.00175105
7.11656	875.723	0.000299325	6040.41	0.00206463
7.16406	876.043	0.00031698	6042.62	0.00218641
7.2188	877.472	0.000273551	6052.47	0.00188685
7.27074	877.615	0.00026534	6053.47	0.00183021
7.327	877.871	0.000317204	6055.23	0.00218796
7.3762	879.229	0.000325581	6064.6	0.00224574
7.42669	879.519	0.000243484	6066.59	0.00167946
7.4839	880.721	0.00024083	6074.88	0.00166116
7.53439	880.413	0.000261783	6072.76	0.00180568
7.58364	881.127	0.000309463	6077.69	0.00213456
7.63066	882.087	0.000319119	6084.31	0.00220117
7.68064	882.387	0.000300188	6086.38	0.00207058
7.73034	882.888	0.000358432	6089.83	0.00247233
7.7808	883.666	0.000350125	6095.2	0.00241503
7.83329	884.266	0.000267901	6099.34	0.00184788
7.89176	884.876	0.000307948	6103.55	0.00212411
7.94047	885.299	0.000245388	6106.46	0.0016926
7.99269	885.878	0.000311182	6110.46	0.00214642
8.04127	886.268	0.000318446	6113.15	0.00219652
8.09596	887.034	0.00031362	6118.43	0.00216323
8.14293	887.282	0.000299723	6120.14	0.00206738
8.19144	887.977	0.000315409	6124.94	0.00217558
8.24041	888.06	0.000285959	6125.51	0.00197244
8.28763	888.279	0.000296263	6127.02	0.00204352
8.34036	888.118	0.00034724	6125.91	0.00239513
8.38929	889.355	0.000292284	6134.44	0.00201607
8.44329	889.377	0.00027597	6134.6	0.00190354
8.49382	889.595	0.000293038	6136.1	0.00202127
8.54428	889.356	0.000323779	6134.45	0.00223331
8.59075	890.087	0.000331472	6139.49	0.00228637
8.63995	890.513	0.000343614	6142.43	0.00237012
8.68746	890.677	0.000333453	6143.56	0.00230003
8.73669	891.142	0.000324987	6146.77	0.00224164
8.78492	891.078	0.000372551	6146.32	0.00256972
8.8324	890.953	0.000323223	6145.46	0.00222947
8.88408	891.417	0.000295676	6148.67	0.00203946
8.92936	891.872	0.000281783	6151.8	0.00194364
8.97961	892.031	0.000335871	6152.9	0.00231671
8.97676	891.417	0.00035863	6148.66	0.0024737
8.92593	892.149	0.000313219	6153.72	0.00216047
8.87524	892.363	0.000358213	6155.19	0.00247082
8.82404	891.892	0.00031004	6151.94	0.00213854
8.77908	892.018	0.000293354	6152.81	0.00202344
8.73283	891.866	0.000309352	6151.76	0.0021338
8.68111	892.297	0.000322677	6154.74	0.0022257
8.63336	892.012	0.00024815	6152.77	0.00171164
8.58865	891.856	0.000332524	6151.7	0.00229363
8.54315	891.948	0.000273806	6152.32	0.00188861
8.49316	891.404	0.000305972	6148.57	0.00211048
8.44566	891.626	0.000268209	6150.1	0.00185001
8.40018	890.639	0.000347303	6143.29	0.00239557
8.35223	890.194	0.000298993	6140.23	0.00206235
8.29974	890.668	0.000353249	6143.5	0.00243658
8.24677	890.813	0.000276416	6144.5	0.00190661
8.19279	889.379	0.000300536	6134.6	0.00207299
8.14527	890.24	0.000336126	6140.54	0.00231847
8.09081	889.383	0.000272577	6134.63	0.00188014
8.04432	889.254	0.000281202	6133.74	0.00193963
7.98627	889.301	0.000221768	6134.07	0.00152967
7.94077	888.479	0.000314243	6128.4	0.00216753
7.88556	888.391	0.000306162	6127.79	0.00211179
7.83059	887.662	0.000336637	6122.76	0.002322
7.78437	887.032	0.00032454	6118.42	0.00223856
7.7346	885.73	0.000276004	6109.44	0.00190377
7.67918	885.551	0.000310381	6108.2	0.00214089
7.62943	885.174	0.000317758	6105.6	0.00219178
7.58244	884.275	0.00035338	6099.4	0.00243748
7.53016	884.791	0.000306417	6102.96	0.00211355
7.48394	884.404	0.000237031	6100.29	0.00163495
7.43073	883.451	0.000278946	6093.72	0.00192406
7.38149	883.534	0.000255541	6094.29	0.00176263
7.32699	882.665	0.000242547	6088.29	0.001673
7.27552	882.132	0.000255182	6084.62	0.00176015
7.21935	881.489	0.000259564	6080.18	0.00179038
7.16806	880.538	0.000293448	6073.62	0.0020241
7.12209	880.31	0.000279489	6072.05	0.00192781
7.06461	878.577	0.000261018	6060.1	0.00180041
7.01639	878.776	0.000225704	6061.47	0.00155682
6.96916	877.821	0.000218467	6054.89	0.00150691
6.91216	877.405	0.000251176	6052.01	0.00173252
6.85973	876.149	0.000297881	6043.35	0.00205467
6.81223	875.665	0.000286976	6040.01	0.00197945
6.762	874.941	0.000278038	6035.02	0.0019178
6.71554	874.472	0.000253365	6031.78	0.00174762
6.66502	873.851	0.000288816	6027.5	0.00199215
6.61056	872.279	0.000190572	6016.66	0.00131449
6.56034	871.436	0.000262824	6010.84	0.00181286
6.50836	870.932	0.000314381	6007.37	0.00216848
6.4579	869.875	0.000231382	6000.08	0.00159599
6.41141	868.625	0.000278696	5991.45	0.00192234
6.36218	867.05	0.000217474	5980.59	0.00150005
6.31049	866.932	0.000248834	5979.77	0.00171636
6.26046	865.285	0.000294465	5968.41	0.00203111
6.20643	864.717	0.000271023	5964.49	0.00186942
6.15672	863.754	0.000298002	5957.85	0.00205551
6.10751	862.446	0.000249053	5948.83	0.00171788
6.0603	861.2	0.000247119	5940.24	0.00170453
6.00783	859.833	0.000211644	5930.81	0.00145984
5.95158	858.228	0.000254757	5919.74	0.00175722
5.90287	856.852	0.000216188	5910.24	0.00149118
5.85012	855.889	0.000268326	5903.61	0.00185081
5.80095	855.115	0.000255047	5898.27	0.00175922
5.75215	853.935	0.000322524	5890.13	0.00222465
5.70166	852.496	0.000259784	5880.2	0.00179189
5.64996	850.812	0.000332075	5868.59	0.00229053
5.60224	849.25	0.000331908	5857.81	0.00228938
5.55172	848.026	0.000265522	5849.37	0.00183148
5.50252	846.92	0.00023527	5841.74	0.00162281
5.44407	845.149	0.000327293	5829.52	0.00225754
5.39136	843.888	0.000275043	5820.82	0.00189714
5.34638	842.39	0.000225385	5810.49	0.00155462
5.29663	840.605	0.000272861	5798.18	0.00188209
5.23916	838.814	0.000318218	5785.83	0.00219495
5.18847	837.176	0.000240901	5774.53	0.00166164
5.13823	835.41	0.000162767	5762.35	0.00112271
5.08424	833.576	0.000198081	5749.7	0.00136629
5.03427	832.54	0.000236573	5742.55	0.00163179
4.98509	830.292	0.00024223	5727.05	0.00167081
4.93356	828.255	0.000258805	5713	0.00178514
4.88182	826.514	0.000236953	5700.99	0.00163441
4.82835	824.395	0.000268016	5686.37	0.00184868
4.77041	822.203	0.000201604	5671.25	0.00139059
4.72268	820.281	0.000201872	5658	0.00139244
4.667	817.968	0.000207881	5642.04	0.00143389
4.62176	816.244	0.00018249	5630.15	0.00125875
4.57127	814.073	0.000223874	5615.17	0.0015442
4.52331	812.472	0.00020327	5604.13	0.00140208
4.46859	809.949	0.000240938	5586.73	0.0016619
4.42155	807.911	0.000239459	5572.67	0.0016517
4.36454	805.831	0.00023536	5558.32	0.00162342
4.31812	803.469	0.000231424	5542.03	0.00159627
4.26487	801.089	0.000197311	5525.62	0.00136098
4.21767	799.046	0.00019466	5511.52	0.00134269
4.16194	796.28	0.00018737	5492.44	0.00129241
4.11623	794.189	0.000198236	5478.02	0.00136736
4.05952	791.604	0.000215674	5460.19	0.00148764
4.00751	789.179	0.000181792	5443.47	0.00125393
3.96003	786.751	0.000226895	5426.71	0.00156504
3.91053	783.888	0.000214294	5406.97	0.00147812
3.86162	781.367	0.00019477	5389.58	0.00134345
3.81162	779.331	0.000216045	5375.54	0.0014902
3.76416	776.474	0.000187488	5355.83	0.00129322
3.71343	774.017	0.000181175	5338.88	0.00124968
3.66647	771.285	0.000174169	5320.04	0.00120135
3.61349	768.531	0.000216011	5301.04	0.00148996
3.56551	766.132	0.00022062	5284.5	0.00152175
3.51578	762.99	0.000212091	5262.82	0.00146293
3.46331	760.226	0.000168662	5243.76	0.00116336
3.41385	757.149	0.000209276	5222.53	0.00144351
3.36535	754.321	0.000241791	5203.03	0.00166778
3.31115	751.234	0.000201485	5181.73	0.00138977
3.2582	747.899	0.000179057	5158.73	0.00123507
3.20723	744.646	0.000234418	5136.29	0.00161693
3.15627	741.622	0.000176988	5115.43	0.0012208
3.10926	738.302	0.000215541	5092.53	0.00148672
3.06128	735.157	0.00020492	5070.84	0.00141346
3.00531	731.426	0.000186559	5045.11	0.00128681
2.95759	728.417	0.000172887	5024.35	0.00119251
2.9084	725.315	0.00016088	5002.95	0.00110969
2.85665	721.598	0.000199857	4977.32	0.00137854
2.80444	718.403	0.000171488	4955.28	0.00118286
2.75773	714.641	0.00015615	4929.33	0.00107706
2.70726	711.448	0.000186078	4907.3	0.00128349
2.65873	707.64	0.000185958	4881.04	0.00128267
2.60477	703.868	0.000162889	4855.02	0.00112355
2.5523	700.291	0.00017354	4830.35	0.00119702
2.498075	696.499	0.000152975	4804.19	0.00105517
2.45062	692.593	0.000146176	4777.25	0.00100827
2.39862	688.523	0.000113067	4749.18	0.000779895
2.34792	684.773	0.000192126	4723.31	0.00132521
2.29973	681.269	0.000141107	4699.14	0.000973304
2.24949	677.407	0.000146304	4672.5	0.00100915
2.20249	673.467	0.000158737	4645.33	0.00109491
2.14375	669.044	0.000153272	4614.82	0.00105721
2.09803	665.039	0.000130286	4587.19	0.000898666
2.05208	661.075	0.000140532	4559.85	0.000969337
2.00162	657.189	0.000125543	4533.04	0.000865952
1.94939	652.649	0.000135593	4501.73	0.000935268
1.89592	648.316	0.000136646	4471.85	0.000942532
1.84696	644.092	0.000138866	4442.71	0.000957847
1.79297	639.335	0.000129974	4409.9	0.000896513
1.74399	635.069	0.00015981	4380.47	0.00110231
1.6935	630.714	0.000156268	4350.43	0.00107788
1.64282	626.283	0.000116318	4319.87	0.000802321
1.59585	622.081	0.000112446	4290.88	0.000775614
1.54312	617.267	0.00012155	4257.68	0.000838407
1.48915	612.972	0.00011179	4228.06	0.000771085
1.44344	608.128	0.000111356	4194.64	0.000768094
1.3932	603.572	0.000102232	4163.22	0.000705155
1.34225	598.836	0.000120421	4130.55	0.000830616
1.29425	594.048	0.000126362	4097.52	0.000871597
1.23879	588.729	0.00012729	4060.83	0.000878002
1.1926	584.478	0.000118184	4031.52	0.000815186
1.14133	579.616	0.00010427	3997.98	0.000719217
1.08764	574.182	8.23576e-05	3960.5	0.000568072
1.03267	568.822	0.000106703	3923.52	0.000735999
0.988965	564.261	0.000134195	3892.06	0.000925627
0.936949	559.172	0.00010908	3856.96	0.00075239
0.888449	554.177	0.000107791	3822.51	0.000743501
0.835469	548.523	9.44943e-05	3783.51	0.000651786
0.787451	543.865	9.59593e-05	3751.38	0.000661892
0.727521	537.53	9.57882e-05	3707.68	0.000660711
0.682015	532.864	8.71395e-05	3675.5	0.000601056
0.628589	527.071	9.0779e-05	3635.54	0.00062616
0.579607	521.573	7.447e-05	3597.62	0.000513666
0.529845	516.16	0.000102162	3560.28	0.000704672
0.482184	511.219	8.36505e-05	3526.2	0.00057699
0.428159	505.172	0.000103307	3484.49	0.000712575
0.377667	499.473	8.44796e-05	3445.18	0.000582709
0.324479	493.284	8.18564e-05	3402.49	0.000564615
0.271949	487.482	8.14347e-05	3362.47	0.000561707
0.222492	481.685	6.70241e-05	3322.48	0.000462308
0.175763	475.793	6.92229e-05	3281.85	0.000477474
0.117225	469.166	7.49343e-05	3236.14	0.000516869
0.0685261	463.052	8.13997e-05	3193.96	0.000561465
0.0185555	456.887	5.34425e-05	3151.44	0.000368627
-0.0321912	450.819	7.24396e-05	3109.58	0.000499662
-0.0810735	444.328	7.36686e-05	3064.81	0.000508138
-0.13664	437.212	7.2784e-05	3015.72	0.000502037
-0.182259	430.611	7.86662e-05	2970.19	0.000542611
-0.234359	424.052	6.89869e-05	2924.95	0.000475846
-0.283283	417.401	8.29082e-05	2879.08	0.00057187
-0.336256	410.63	7.98567e-05	2832.37	0.000550822
-0.387077	403.12	8.21134e-05	2780.57	0.000566388
-0.436849	396.905	6.53097e-05	2737.71	0.000450482
-0.485121	389.739	7.6206e-05	2688.28	0.000525641
-0.540849	381.794	8.45749e-05	2633.47	0.000583367
-0.590596	374.434	8.02499e-05	2582.71	0.000553534
-0.642759	366.784	8.90217e-05	2529.94	0.000614038
-0.687026	359.051	8.77743e-05	2476.6	0.000605435
-0.741252	351.098	9.06585e-05	2421.74	0.000625329
-0.791714	342.696	7.58772e-05	2363.79	0.000523373
-0.838422	334.151	8.37623e-05	2304.85	0.000577761
-0.892746	325.333	8.92896e-05	2244.03	0.000615887
-0.938983	316.06	8.30853e-05	2180.06	0.000573092
-0.987985	306.451	8.18451e-05	2113.79	0.000564537
-1.04114	295.508	8.34644e-05	2038.3	0.000575707
-1.09015	286.031	9.40004e-05	1972.94	0.00064838
-1.14313	274.023	9.41473e-05	1890.11	0.000649393
-1.19609	261.218	0.000106207	1801.79	0.00073258
-1.25278	249.013	7.92916e-05	1717.6	0.000546924
-1.30052	236.126	9.71281e-05	1628.71	0.000669954
-1.3528	221.062	9.7042e-05	1524.8	0.00066936
-1.40076	208.209	9.14697e-05	1436.15	0.000630924
-1.44996	193.331	0.000527594	1333.52	0.00363915
-1.4982	176.911	0.000116424	1220.27	0.000803051
-1.54242	161.545	0.000125452	1114.28	0.000865322
-1.5879	145.616	0.000131219	1004.41	0.0009051
-1.63311	128.805	0.000136351	888.45	0.000940497
-1.68456	109.165	0.000127204	752.983	0.000877403
-1.7363	86.4537	0.000154875	596.325	0.00106827
-1.7865	64.9693	0.000124888	448.134	0.000861429
-1.83324	44.7325	0.000141919	308.548	0.000978907
-1.88922	18.9972	0.000127709	131.036	0.000880889
-1.93871	-5.42347	0.000192983	-37.4091	0.00133113
-1.99163	-33.084	0.000134476	-228.201	0.000927563
-2.04038	-56.6813	0.000156085	-390.967	0.00107662
-2.09307	-82.8807	0.000147943	-571.681	0.00102046
-2.14355	-112.771	0.000196556	-777.85	0.00135577
-2.19698	-142.576	0.00018133	-983.433	0.00125075
-2.24625	-170.504	0.000191733	-1176.08	0.00132251
-2.29574	-198.252	0.000170139	-1367.47	0.00117356
-2.3442	-223.325	0.000208268	-1540.41	0.00143656
-2.39242	-250.896	0.000182587	-1730.59	0.00125942
-2.44091	-277.908	0.000181775	-1916.9	0.00125382
-2.49484	-304.468	0.000175632	-2100.11	0.00121144
-2.54032	-330.86	0.000178414	-2282.15	0.00123063
-2.58926	-354.053	0.000184778	-2442.13	0.00127453
-2.63925	-378.864	0.000199053	-2613.27	0.00137299
-2.69605	-405.506	0.00021786	-2797.03	0.00150272
-2.743	-429.004	0.000206072	-2959.11	0.00142141
-2.79571	-453.345	0.000199519	-3127.01	0.0013762
-2.84517	-474.625	0.000188521	-3273.78	0.00130035
-2.89861	-495.152	0.000206282	-3415.37	0.00142286
-2.9456	-514.625	0.000210976	-3549.69	0.00145524
-2.99457	-532.9	0.000182152	-3675.75	0.00125642
-3.04703	-550.605	0.000234501	-3797.87	0.0016175
-3.09802	-567.032	0.000240406	-3911.18	0.00165823
-3.14705	-582.615	0.000186893	-4018.66	0.00128912
-3.19824	-597.344	0.000185191	-4120.26	0.00127738
-3.25097	-611.572	0.000202425	-4218.4	0.00139625
-3.30016	-626.066	0.000196012	-4318.37	0.00135202
-3.35036	-638.552	0.000209569	-4404.49	0.00144553
-3.40258	-650.143	0.000236633	-4484.44	0.00163221
-3.44878	-660.259	0.000226554	-4554.22	0.00156268
-3.49801	-670.549	0.000216063	-4625.2	0.00149032
-3.55225	-681.622	0.000241334	-4701.58	0.00166463
-3.60074	-690.351	0.000209376	-4761.79	0.0014442
-3.65443	-699.925	0.000193982	-4827.82	0.00133802
-3.70912	-708.159	0.00018424	-4884.62	0.00127082
-3.75486	-716.3	0.000252536	-4940.77	0.0017419
-3.80582	-723.5	0.000222246	-4990.43	0.00153297
-3.85707	-730.394	0.000191245	-5037.98	0.00131914
-3.90603	-737.207	0.000155752	-5084.98	0.00107432
-3.95599	-743.242	0.000227833	-5126.6	0.00157151
-4.00471	-749.423	0.000166794	-5169.24	0.00115048
-4.06147	-755.745	0.000222048	-5212.85	0.00153161
-4.10898	-761.325	0.000260627	-5251.34	0.00179771
-4.16314	-766.469	0.000216056	-5286.82	0.00149027
-4.21364	-771.03	0.0002268	-5318.28	0.00156438
-4.2641	-775.883	0.000217852	-5351.75	0.00150266
-4.31329	-780.552	0.000204396	-5383.96	0.00140985
-4.36627	-784.978	0.000222204	-5414.48	0.00153268
-4.41848	-789.285	0.000198547	-5444.2	0.0013695
-4.46875	-792.578	0.000254543	-5466.91	0.00175574
-4.5115	-796.368	0.000251971	-5493.05	0.001738
-4.5587	-799.875	0.000211767	-5517.24	0.00146069
-4.60441	-802.622	0.000215664	-5536.19	0.00148757
-4.65841	-805.973	0.000229625	-5559.3	0.00158387
-4.70959	-809.166	0.000270466	-5581.33	0.00186557
-4.75283	-812.16	0.000219275	-5601.98	0.00151248
-4.80327	-815.303	0.000258416	-5623.66	0.00178246
-4.85854	-818.022	0.00023439	-5642.41	0.00161674
-4.90951	-821.324	0.000296651	-5665.19	0.00204619
-4.96096	-823.547	0.00023136	-5680.52	0.00159583
-5.01541	-826.737	0.00026655	-5702.52	0.00183856
-5.06614	-829.124	0.00023647	-5718.99	0.00163108
-5.11763	-831.633	0.000280067	-5736.3	0.0019318
-5.16856	-833.87	0.000227304	-5751.73	0.00156786
-5.21327	-835.703	0.000245473	-5764.37	0.00169318
-5.26027	-838.2	0.000291909	-5781.6	0.00201348
-5.31301	-840.34	0.000302288	-5796.35	0.00208507
-5.36143	-842.814	0.000295554	-5813.42	0.00203862
-5.41442	-844.754	0.000262383	-5826.8	0.00180982
-5.46419	-846.015	0.00034562	-5835.5	0.00238396
-5.51412	-848.653	0.000297945	-5853.7	0.00205512
-5.56131	-850.199	0.000255213	-5864.36	0.00176036
-5.61408	-852.02	0.000261678	-5876.92	0.00180496
-5.66653	-853.547	0.000229193	-5887.45	0.00158089
-5.72372	-855.075	0.00028032	-5897.99	0.00193355
-5.77445	-857.358	0.000362545	-5913.74	0.0025007
-5.82696	-858.704	0.000302252	-5923.02	0.00208482
-5.87393	-859.409	0.000287064	-5927.89	0.00198006
-5.9266	-861.484	0.00028272	-5942.2	0.0019501
-5.97684	-862.418	0.000246518	-5948.64	0.00170039
-6.03179	-864.43	0.000338397	-5962.52	0.00233414
-6.08252	-865.832	0.000266112	-5972.19	0.00183554
-6.13544	-867.539	0.000218415	-5983.96	0.00150655
-6.18545	-868.755	0.000264345	-5992.35	0.00182335
-6.23645	-870.138	0.000290113	-6001.89	0.00200109
-6.28469	-870.705	0.000334077	-6005.8	0.00230434
-6.33243	-871.857	0.000295385	-6013.75	0.00203745
-6.38639	-872.918	0.000258744	-6021.06	0.00178472
-6.4333	-873.585	0.000256843	-6025.67	0.00177161
-6.48329	-875.652	0.000254952	-6039.92	0.00175856
-6.53553	-876.412	0.00027357	-6045.16	0.00188698
-6.58899	-878.001	0.000328827	-6056.12	0.00226813
-6.63519	-879.251	0.000287372	-6064.74	0.00198219
-6.68396	-879.986	0.000353129	-6069.82	0.00243575
-6.74046	-881.009	0.00028537	-6076.88	0.00196838
-6.78946	-881.779	0.000370962	-6082.18	0.00255876
-6.84137	-882.199	0.000299412	-6085.08	0.00206523
-6.89181	-883.82	0.000377883	-6096.27	0.0026065
-6.94153	-884.123	0.000343181	-6098.35	0.00236714
-6.991	-885.533	0.000260462	-6108.08	0.00179657
-7.03819	-886.344	0.000276268	-6113.67	0.00190559
-7.09142	-887.012	0.000360307	-6118.28	0.00248526
-7.14365	-887.619	0.000338731	-6122.47	0.00233644
-7.1881	-888.517	0.000371628	-6128.66	0.00256335
-7.23958	-889.089	0.000386676	-6132.61	0.00266715
-7.2933	-890.083	0.000322177	-6139.46	0.00222226
-7.34476	-890.544	0.00035393	-6142.64	0.00244128
-7.39622	-891.215	0.000373261	-6147.27	0.00257461
-7.44816	-892.781	0.000310077	-6158.07	0.0021388
-7.4974	-892.899	0.00036678	-6158.88	0.00252992
-7.54739	-893.043	0.00032217	-6159.88	0.00222221
-7.60041	-893.531	0.000348067	-6163.25	0.00240083
-7.65185	-894.698	0.000369557	-6171.29	0.00254907
-7.70076	-894.74	0.000353073	-6171.58	0.00243537
-7.75449	-895.604	0.000428656	-6177.54	0.00295671
-7.80073	-896.45	0.000419894	-6183.38	0.00289627
-7.85521	-897.395	0.000361594	-6189.9	0.00249414
-7.90693	-896.93	0.000343986	-6186.69	0.00237269
-7.95587	-897.378	0.000369529	-6189.78	0.00254887
-8.008075	-898.038	0.000304232	-6194.33	0.00209848
-8.05712	-898.889	0.000294351	-6200.2	0.00203032
-8.10784	-899.496	0.000410199	-6204.39	0.0028294
-8.15779	-899.947	0.000314815	-6207.5	0.00217148
-8.21127	-899.71	0.000364181	-6205.87	0.00251199
-8.25647	-900.899	0.000334597	-6214.07	0.00230793
-8.30895	-900.81	0.000307479	-6213.46	0.00212088
-8.35916	-901.424	0.000433068	-6217.69	0.00298714
-8.4121	-901.298	0.00033971	-6216.82	0.00234319
-8.4638	-902.244	0.00040864	-6223.34	0.00281864
-8.51031	-901.458	0.000374588	-6217.92	0.00258377
-8.55655	-902.452	0.000447052	-6224.78	0.0030836
-8.6065	-902.411	0.000376778	-6224.5	0.00259888
-8.65172	-902.063	0.00033286	-6222.1	0.00229594
-8.69742	-901.943	0.000345284	-6221.27	0.00238164
-8.74664	-902.695	0.000364573	-6226.45	0.00251469
-8.79584	-903.189	0.000355049	-6229.86	0.002449
-8.84155	-902.71	0.000362445	-6226.56	0.00250001
-8.89402	-903.23	0.000420467	-6230.15	0.00290023
-8.94027	-902.527	0.000432022	-6225.29	0.00297993
-8.99195	-903.492	0.000456721	-6231.95	0.00315029
-8.96669	-903.39	0.000414896	-6231.25	0.0028618
-8.92024	-903.377	0.000380311	-6231.16	0.00262324
-8.86955	-903.261	0.000384878	-6230.36	0.00265474
-8.82634	-903.507	0.000423232	-6232.06	0.0029193
-8.77663	-902.868	0.000363404	-6227.65	0.00250663
-8.73043	-902.881	0.000423482	-6227.74	0.00292102
-8.6852	-902.672	0.000350997	-6226.3	0.00242105
-8.63626	-902.937	0.000459378	-6228.13	0.00316862
-8.594775	-902.839	0.000332214	-6227.45	0.00229149
-8.54332	-902.555	0.000382401	-6225.49	0.00263766
-8.49535	-902.455	0.000308159	-6224.8	0.00212556
-8.44635	-901.454	0.000409615	-6217.9	0.00282537
-8.39961	-901.346	0.000473324	-6217.15	0.00326482
-8.34519	-901.8	0.000382136	-6220.28	0.00263583
-8.30019	-901.054	0.000371834	-6215.13	0.00256478
-8.24401	-901.483	0.000393339	-6218.1	0.00271311
-8.19676	-900.918	0.000371072	-6214.2	0.00255952
-8.14231	-899.864	0.000380115	-6206.93	0.00262189
-8.08861	-899.681	0.000442735	-6205.67	0.00305382
-8.03863	-899.571	0.000424298	-6204.91	0.00292665
-7.99234	-899.024	0.000407394	-6201.14	0.00281005
-7.94087	-898.537	0.000450713	-6197.78	0.00310885
-7.88693	-898.457	0.000329157	-6197.23	0.00227041
-7.83921	-898.286	0.00039746	-6196.04	0.00274153
-7.78826	-898.015	0.000394532	-6194.17	0.00272134
-7.73928	-898	0.000407782	-6194.07	0.00281273
-7.68754	-896.606	0.000352138	-6184.45	0.00242892
-7.63611	-896.517	0.00038609	-6183.84	0.00266311
-7.58789	-895.675	0.00029785	-6178.03	0.00205446
-7.53912	-895.477	0.000362619	-6176.67	0.00250121
-7.48666	-894.727	0.0003045	-6171.49	0.00210033
-7.43271	-893.696	0.000381256	-6164.38	0.00262977
-7.38523	-893.522	0.000341321	-6163.18	0.0023543
-7.33729	-892.766	0.000332098	-6157.97	0.00229069
-7.2883	-891.994	0.000349841	-6152.64	0.00241307
-7.23683	-890.958	0.000326056	-6145.5	0.00224901
-7.18285	-890.58	0.000375883	-6142.89	0.0025927
-7.13589	-890.38	0.000256346	-6141.51	0.00176818
-7.08541	-889.919	0.000340221	-6138.33	0.00234672
-7.03017	-888.97	0.000361782	-6131.79	0.00249544
-6.984	-887.902	0.000330009	-6124.42	0.00227628
-6.93227	-886.748	0.000291513	-6116.46	0.00201075
-6.88382	-886.5	0.000278848	-6114.75	0.00192339
-6.83459	-886.108	0.000311655	-6112.05	0.00214968
-6.78414	-884.797	0.000308294	-6103	0.0021265
-6.73168	-883.981	0.000293096	-6097.37	0.00202167
-6.68192	-883.656	0.000320742	-6095.13	0.00221236
-6.63219	-882.477	0.000334468	-6087	0.00230703
-6.58148	-881.596	0.000312578	-6080.92	0.00215605
-6.53302	-880.931	0.000240321	-6076.33	0.00165765
-6.47829	-879.915	0.000342381	-6069.33	0.00236162
-6.42759	-878.631	0.000440078	-6060.47	0.00303549
-6.37836	-877.613	0.0002996	-6053.45	0.00206653
-6.3329	-877.206	0.000306196	-6050.65	0.00211202
-6.2862	-875.733	0.000340474	-6040.48	0.00234847
-6.23266	-874.864	0.000272877	-6034.49	0.0018822
-6.17794	-873.525	0.000315904	-6025.25	0.00217899
-6.12623	-872.067	0.000328798	-6015.2	0.00226793
-6.07602	-871.329	0.000289464	-6010.1	0.00199661
-6.01879	-869.977	0.000340184	-6000.78	0.00234646
-5.96783	-869.084	0.00038138	-5994.62	0.00263061
-5.91987	-867.729	0.000323788	-5985.28	0.00223337
-5.86094	-866.306	0.000261073	-5975.45	0.00180078
-5.80969	-865.198	0.000294204	-5967.81	0.00202931
-5.7607	-863.455	0.000307705	-5955.79	0.00212243
-5.70821	-862.485	0.000320027	-5949.1	0.00220743
-5.66026	-860.656	0.000263186	-5936.48	0.00181536
-5.61102	-859.492	0.000250338	-5928.46	0.00172674
-5.55557	-857.393	0.000270636	-5913.98	0.00186674
-5.50462	-856.507	0.000265444	-5907.87	0.00183093
-5.45217	-854.552	0.000249663	-5894.38	0.00172208
-5.4017	-852.901	0.000310723	-5883	0.00214325
-5.34773	-851.279	0.000268143	-5871.81	0.00184955
-5.29593	-849.812	0.000301607	-5861.69	0.00208038
-5.24876	-848.341	0.000236044	-5851.54	0.00162814
-5.19481	-846.797	0.000295774	-5840.89	0.00204014
-5.14058	-844.8	0.000303537	-5827.12	0.00209368
-5.09237	-843.252	0.000276053	-5816.44	0.00190411
-5.03913	-841.899	0.000250425	-5807.11	0.00172734
-4.98946	-839.269	0.000297892	-5788.97	0.00205475
-4.94102	-837.79	0.000294473	-5778.77	0.00203116
-4.887	-835.971	0.00023836	-5766.22	0.00164412
-4.8375	-833.225	0.000195458	-5747.28	0.0013482
-4.78678	-832.192	0.000258568	-5740.15	0.00178351
-4.73731	-830.285	0.000258718	-5727	0.00178454
-4.68488	-827.411	0.000298491	-5707.18	0.00205888
-4.63063	-825.535	0.000311043	-5694.24	0.00214546
-4.57717	-823.397	0.000306083	-5679.49	0.00211125
-4.5315	-821.525	0.000320307	-5666.57	0.00220936
-4.47728	-819.581	0.000255842	-5653.17	0.0017647
-4.42572	-817.224	0.000276339	-5636.91	0.00190608
-4.37647	-814.683	0.000307639	-5619.38	0.00212198
-4.32055	-812.825	0.000220904	-5606.57	0.00152372
-4.26631	-809.999	0.00028269	-5587.07	0.00194989
-4.22284	-808.159	0.000235675	-5574.38	0.0016256
-4.17039	-805.299	0.00027348	-5554.65	0.00188636
-4.11619	-803.07	0.000211664	-5539.28	0.00145998
-4.06295	-800.389	0.000264983	-5520.79	0.00182776
-4.01147	-797.447	0.000222272	-5500.5	0.00153315
-3.96099	-795.281	0.000248735	-5485.55	0.00171568
-3.91052	-792.599	0.000260958	-5467.06	0.00179999
-3.86033	-790.163	0.000276471	-5450.25	0.001907
-3.80857	-787.708	0.000265736	-5433.32	0.00183295
-3.75535	-784.671	0.00025229	-5412.37	0.0017402
-3.70617	-781.767	0.000206067	-5392.34	0.00142138
-3.65295	-779.119	0.000225905	-5374.08	0.00155821
-3.60299	-776.564	0.000195615	-5356.45	0.00134928
-3.55275	-773.508	0.000219247	-5335.37	0.00151228
-3.50403	-770.759	0.000227457	-5316.41	0.00156892
-3.45257	-767.747	0.00016021	-5295.63	0.00110507
-3.40511	-764.909	0.000266085	-5276.06	0.00183536
-3.35038	-761.899	0.000221749	-5255.3	0.00152954
-3.30268	-759.054	0.000239154	-5235.67	0.00164959
-3.24796	-755.537	0.00022253	-5211.41	0.00153493
-3.19802	-752.229	0.000204112	-5188.6	0.00140789
-3.14504	-749.494	0.000173763	-5169.73	0.00119855
-3.09429	-745.792	0.00019341	-5144.2	0.00133407
-3.04004	-742.335	0.000215252	-5120.35	0.00148473
-2.9896	-739.199	0.000151064	-5098.72	0.00104198
-2.93789	-735.633	0.000177509	-5074.12	0.00122439
-2.88145	-731.876	0.000168904	-5048.21	0.00116504
-2.83148	-728.536	0.000194881	-5025.17	0.00134422
-2.7845	-725.172	0.000209537	-5001.97	0.00144531
-2.73279	-721.565	0.000260629	-4977.09	0.00179772
-2.67955	-717.949	0.000212747	-4952.15	0.00146745
-2.62256	-713.889	0.00026795	-4924.14	0.00184822
-2.57332	-710.432	0.000189033	-4900.3	0.00130388
-2.51661	-706.401	0.000179167	-4872.49	0.00123583
-2.47015	-703.033	0.000215507	-4849.26	0.00148649
-2.42541	-699.344	0.000258903	-4823.81	0.00178581
-2.38122	-695.945	0.0001918	-4800.37	0.00132297
-2.33027	-692.438	0.000190204	-4776.18	0.00131196
-2.28527	-688.587	0.000204741	-4749.62	0.00141223
-2.24178	-685.029	0.000164059	-4725.08	0.00113162
-2.19381	-681.485	0.000138148	-4700.63	0.000952897
-2.14708	-678.052	0.000194482	-4676.95	0.00134146
-2.10061	-673.812	0.000144321	-4647.71	0.00099547
-2.05539	-670.146	0.000150507	-4622.42	0.00103814
-2.01067	-666.476	0.000172198	-4597.1	0.00118776
-1.9652	-662.743	0.000137606	-4571.35	0.000949152
-1.91872	-659.073	0.000160677	-4546.04	0.00110829
-1.87376	-655.281	0.000197252	-4519.88	0.00136057
-1.82778	-651.326	0.000154177	-4492.6	0.00106346
-1.78405	-647.41	0.000120032	-4465.59	0.000827935
-1.73583	-643.072	0.000134492	-4435.67	0.000927676
-1.68685	-638.7	0.000151084	-4405.52	0.00104212
-1.64265	-634.742	0.000145648	-4378.22	0.00100463
-1.59443	-630.582	0.000117728	-4349.52	0.000812047
-1.5487	-626.636	0.000140841	-4322.31	0.000971471
-1.50424	-622.802	0.000142342	-4295.86	0.000981824
-1.45876	-618.424	0.000122197	-4265.66	0.00084287
-1.41529	-614.285	0.000145235	-4237.11	0.00100178
-1.37008	-610.126	0.000113338	-4208.42	0.000781763
-1.3258	-605.71	0.000142239	-4177.97	0.000981114
-1.27656	-600.903	0.000149407	-4144.81	0.00103055
-1.23058	-596.625	0.000120976	-4115.3	0.000834448
-1.18462	-592.406	0.000103459	-4086.2	0.000713621
-1.14016	-587.754	0.000127902	-4054.11	0.000882224
-1.09548	-583.506	0.000139301	-4024.81	0.000960847
-1.04919	-578.953	0.000110588	-3993.4	0.000762798
-0.998008	-573.942	0.000119371	-3958.84	0.000823377
-0.954784	-569.393	0.000115226	-3927.46	0.000794784
-0.908786	-564.308	0.000104932	-3892.39	0.000723785
-0.860509	-559.846	0.000120661	-3861.61	0.000832277
-0.813248	-554.545	0.000106805	-3825.04	0.000736703
-0.766818	-549.887	9.47839e-05	-3792.92	0.000653784
-0.720573	-545.015	7.79773e-05	-3759.31	0.000537858
-0.671612	-539.679	8.5397e-05	-3722.5	0.000589037
-0.625615	-534.862	9.66516e-05	-3689.28	0.000666667
-0.58186	-529.994	7.02542e-05	-3655.7	0.000484588
-0.534922	-525.085	6.84299e-05	-3621.84	0.000472004
-0.488921	-519.62	7.95944e-05	-3584.14	0.000549013
-0.441925	-514.585	7.2095e-05	-3549.41	0.000497284
-0.39645	-509.551	7.63714e-05	-3514.69	0.000526781
-0.350452	-504.455	6.47993e-05	-3479.55	0.000446961
-0.302986	-498.561	8.47134e-05	-3438.89	0.000584321
-0.257776	-493.292	6.61896e-05	-3402.55	0.000456551
-0.211245	-488	7.7919e-05	-3366.04	0.000537456
-0.165516	-482.616	6.20961e-05	-3328.9	0.000428316
-0.119993	-477.22	8.23641e-05	-3291.69	0.000568117
-0.0757607	-471.636	6.41855e-05	-3253.17	0.000442728
-0.0282813	-465.332	8.32305e-05	-3209.69	0.000574093
0.0174766	-460.056	7.38898e-05	-3173.3	0.000509664
0.0611348	-454.157	6.13818e-05	-3132.6	0.000423389
0.10701	-448.156	6.15231e-05	-3091.21	0.000424364
0.152842	-442.274	5.80649e-05	-3050.64	0.00040051
0.196748	-436.225	5.53057e-05	-3008.92	0.000381478
0.242341	-430.225	7.25081e-05	-2967.53	0.000500134
0.289756	-424.131	8.48096e-05	-2925.5	0.000584985
0.335044	-417.274	6.91173e-05	-2878.2	0.000476746
0.386759	-410.937	5.9884e-05	-2834.49	0.000413058
0.430571	-403.855	6.76942e-05	-2785.64	0.000466929
0.476623	-397.315	6.42188e-05	-2740.53	0.000442958
0.519853	-390.642	6.52478e-05	-2694.51	0.000450055
0.565557	-383.869	7.28763e-05	-2647.79	0.000502674
0.610813	-376.986	8.50655e-05	-2600.31	0.000586751
0.653052	-370.571	7.92252e-05	-2556.06	0.000546466
0.701493	-362.507	7.88933e-05	-2500.44	0.000544176
0.745789	-355.041	8.37506e-05	-2448.94	0.000577681
0.791476	-347.219	9.06079e-05	-2394.99	0.00062498
0.836433	-339.166	8.06454e-05	-2339.44	0.000556262
0.886672	-331.082	7.54445e-05	-2283.68	0.000520388
0.930465	-321.513	9.17146e-05	-2217.68	0.000632613
0.974214	-312.623	7.99612e-05	-2156.35	0.000551543
1.0214	-303.234	9.67431e-05	-2091.6	0.000667298
1.0674	-293.537	8.69883e-05	-2024.71	0.000600013
1.11583	-282.449	0.000109373	-1948.23	0.000754416
1.16158	-271.877	0.000118541	-1875.3	0.000817651
1.20608	-260.844	0.000115149	-1799.21	0.000794254
1.25276	-249.376	0.000112611	-1720.1	0.000776746
1.29924	-235.726	0.000135145	-1625.95	0.000932182
1.34199	-224.381	0.000130387	-1547.69	0.000899359
1.39072	-209.491	0.000113259	-1444.99	0.000781215
1.43872	-193.855	0.000152346	-1337.14	0.00105083
1.48491	-178.896	0.000151709	-1233.96	0.00104643
1.53415	-161.772	0.000146484	-1115.84	0.00101039
1.57964	-145.251	0.000146464	-1001.89	0.00101025
1.62534	-128.174	0.000153283	-884.099	0.00105729
1.66907	-109.908	0.000125485	-758.106	0.000865549
1.71504	-91.4054	0.000157782	-630.48	0.00108832
1.75975	-71.7979	0.000129167	-495.235	0.000890947
1.80423	-51.411	0.000147845	-354.614	0.00101978
1.84925	-30.363	0.000172403	-209.432	0.00118917
1.89572	-8.69165	0.000181056	-59.9518	0.00124886
1.93992	13.7189	0.000185021	94.6279	0.00127621
1.98689	36.7667	0.000178842	253.603	0.00123359
2.03609	62.8916	0.000179361	433.803	0.00123717
2.08414	89.7728	0.00017869	619.219	0.00123253
2.13132	113.809	0.000198305	785.013	0.00136784
2.17625	138.646	0.000184849	956.331	0.00127502
2.22202	163.717	0.000181103	1129.26	0.00124918
2.27052	191.739	0.000186756	1322.54	0.00128817
2.31401	216.464	0.00020944	1493.09	0.00144464
2.36395	241.405	0.000255046	1665.12	0.00175921
2.40544	266.256	0.000183026	1836.54	0.00126245
2.45115	290.169	0.000229185	2001.48	0.00158083
2.49513	314.174	0.000252859	2167.06	0.00174412
2.54335	340.406	0.000163467	2347.99	0.00112754
2.59029	363.322	0.000226082	2506.06	0.00155943
2.63607	385.387	0.000192781	2658.26	0.00132973
2.68158	409.626	0.000200032	2825.45	0.00137975
2.72606	428.003	0.000203804	2952.2	0.00140577
2.7708	448.42	0.000238551	3093.03	0.00164544
2.81775	467.661	0.000209273	3225.75	0.00144349
2.85799	486.137	0.000214648	3353.19	0.00148056
2.90373	504.136	0.000193214	3477.35	0.00133272
2.95344	521.2	0.00022876	3595.04	0.0015779
2.99593	538.012	0.000248316	3711.01	0.00171279
3.04013	553.351	0.000197481	3816.81	0.00136215
3.08412	567.917	0.000230794	3917.28	0.00159193
3.12785	582.198	0.000184501	4015.79	0.00127262
3.17284	595.232	0.000250143	4105.69	0.00172539
3.21784	608.298	0.000233016	4195.81	0.00160725
3.26651	620.61	0.000206363	4280.74	0.00142342
3.30848	632.133	0.00021719	4360.22	0.0014981
3.35199	643.187	0.000232065	4436.46	0.0016007
3.39544	652.429	0.000278645	4500.21	0.00192199
3.44041	662.285	0.00023116	4568.2	0.00159446
3.48313	671.474	0.000209896	4631.58	0.00144778
3.52861	680.505	0.000245201	4693.87	0.0016913
3.57334	688.456	0.000261336	4748.72	0.0018026
3.61957	697.007	0.000248794	4807.7	0.00171609
3.66459	704.616	0.000245744	4860.18	0.00169505
3.71053	711.842	0.00024888	4910.02	0.00171669
3.75599	719.288	0.000245891	4961.38	0.00169606
3.79945	725.235	0.000248147	5002.4	0.00171162
3.84645	732.101	0.000216868	5049.76	0.00149588
3.89168	738.037	0.000247482	5090.71	0.00170704
3.93464	742.986	0.000282327	5124.84	0.00194739
3.97987	749.083	0.000237266	5166.9	0.00163658
4.02414	753.481	0.000343539	5197.23	0.0023696
4.06937	758.564	0.000249411	5232.29	0.00172034
4.11635	763.926	0.000213733	5269.28	0.00147425
4.15906	767.756	0.000260665	5295.7	0.00179797
4.20578	772.796	0.0002125	5330.46	0.00146575
4.254	776.748	0.000268855	5357.72	0.00185446
4.30221	780.584	0.000288011	5384.18	0.00198659
4.34494	784.877	0.000244395	5413.79	0.00168575
4.39118	788.479	0.000241863	5438.64	0.00166828
4.43588	792.356	0.000281074	5465.37	0.00193874
4.47843	795.283	0.00023546	5485.57	0.00162412
4.52588	798.887	0.000259623	5510.42	0.00179078
4.56785	801.716	0.000263104	5529.94	0.00181479
4.61636	805.196	0.000246777	5553.94	0.00170218
4.65758	808.235	0.000270287	5574.9	0.00186434
4.70305	810.708	0.000332867	5591.96	0.002296
4.75728	813.833	0.000248037	5613.52	0.00171087
4.79771	816.565	0.000293311	5632.36	0.00202315
4.84418	818.944	0.000329241	5648.77	0.00227098
4.89121	821.968	0.000360792	5669.63	0.00248861
4.93545	824.323	0.000276293	5685.88	0.00190576
4.9804	826.918	0.000317852	5703.77	0.00219243
5.02742	828.543	0.00032022	5714.98	0.00220876
5.07011	830.722	0.000323668	5730.01	0.00223254
5.11384	833.139	0.000274402	5746.68	0.00189273
5.16132	835.231	0.000277298	5761.11	0.0019127
5.20755	836.706	0.000286098	5771.29	0.0019734
5.25225	838.925	0.000268874	5786.59	0.00185459
5.29749	840.953	0.000316912	5800.58	0.00218594
5.34296	842.797	0.000360907	5813.3	0.0024894
5.38618	844.312	0.000298722	5823.75	0.00206047
5.43567	846.335	0.000261425	5837.71	0.00180321
5.47715	847.902	0.000405869	5848.51	0.00279954
5.52313	849.348	0.000349072	5858.49	0.00240777
5.57033	851.548	0.000275924	5873.66	0.00190322
5.61406	853.11	0.0002847	5884.44	0.00196376
5.66105	853.907	0.000245535	5889.93	0.00169361
5.70452	856.023	0.000333126	5904.53	0.00229778
5.75022	857.21	0.000322055	5912.72	0.00222141
5.79526	858.517	0.000284178	5921.73	0.00196016
5.84096	859.665	0.000271623	5929.65	0.00187355
5.88647	861.563	0.000316656	5942.74	0.00218418
5.93067	863.071	0.000340511	5953.15	0.00234872
5.97639	864.088	0.000359152	5960.16	0.0024773
6.01965	865.171	0.000286951	5967.63	0.00197928
6.06809	867.122	0.000315575	5981.09	0.00217672
6.11532	867.875	0.00025387	5986.28	0.0017511
6.15979	868.911	0.000321332	5993.42	0.00221643
6.20604	870.515	0.000417576	6004.49	0.00288029
6.25132	871.645	0.000334857	6012.28	0.00230972
6.29907	872.521	0.000248687	6018.32	0.00171535
6.34228	873.651	0.000300973	6026.12	0.002076
6.38873	875.057	0.000359531	6035.82	0.00247991
6.43322	875.976	0.000304743	6042.16	0.002102
6.47796	877.156	0.000302731	6050.29	0.00208813
6.52342	877.31	0.000334756	6051.36	0.00230902
6.56914	878.832	0.000334167	6061.85	0.00230496
6.61786	879.745	0.000424532	6068.15	0.00292826
6.66335	880.402	0.000332384	6072.68	0.00229266
6.70911	881.128	0.00038664	6077.7	0.0026669
6.75556	882.79	0.000359928	6089.15	0.00248265
6.80028	883.187	0.000335085	6091.9	0.00231129
6.84876	884.229	0.00033403	6099.08	0.00230401
6.89426	885.168	0.000368478	6105.56	0.00254163
6.93795	885.662	0.000363175	6108.97	0.00250504
6.98419	886.15	0.000333781	6112.34	0.0023023
7.03015	887.037	0.000362919	6118.45	0.00250328
7.0729	887.977	0.000377858	6124.94	0.00260633
7.12038	888.991	0.000410891	6131.93	0.00283417
7.16437	888.639	0.000390597	6129.5	0.00269419
7.20887	889.949	0.000411461	6138.54	0.0028381
7.25157	890.092	0.000449873	6139.52	0.00310306
7.29506	891.401	0.000376861	6148.56	0.00259944
7.34653	891.198	0.000386295	6147.15	0.00266452
7.3875	892.538	0.000410517	6156.4	0.00283159
7.43426	892.121	0.00031038	6153.52	0.00214088
7.4787	893.772	0.00033985	6164.91	0.00234416
7.52919	893.911	0.000356974	6165.87	0.00246227
7.5797	894.684	0.000433312	6171.2	0.00298882
7.62268	895.186	0.000393443	6174.66	0.00271382
7.66819	895.9	0.000401738	6179.59	0.00277104
7.72139	896.469	0.000367068	6183.51	0.0025319
7.76412	896.431	0.000380347	6183.25	0.00262349
7.81385	897.156	0.000396162	6188.25	0.00273258
7.85532	897.55	0.000357085	6190.96	0.00246304
7.89931	898.031	0.000360063	6194.29	0.00248358
7.94848	898.735	0.000395739	6199.14	0.00272966
7.99375	898.852	0.000384465	6199.95	0.0026519
8.04205	898.958	0.000449896	6200.68	0.00310322
8.08727	899.598	0.000460036	6205.09	0.00317316
8.1355	899.363	0.000350603	6203.47	0.00241833
8.1832	899.529	0.000416828	6204.62	0.00287513
8.22947	899.72	0.000441305	6205.93	0.00304396
8.27416	900.832	0.000442539	6213.6	0.00305247
8.32493	900.527	0.000377034	6211.5	0.00260064
8.36712	901.796	0.000454289	6220.25	0.00313352
8.41263	901.656	0.00037797	6219.29	0.0026071
8.45733	901.894	0.000440005	6220.93	0.00303499
8.49887	901.637	0.000440029	6219.16	0.00303515
8.54084	901.679	0.000329486	6219.45	0.00227267
8.58658	902.394	0.00032937	6224.38	0.00227187
8.6318	902.583	0.000457072	6225.68	0.00315271
8.67626	902.249	0.000505397	6223.38	0.00348604
8.72047	901.827	0.000486839	6220.47	0.00335803
8.765	901.943	0.000378435	6221.27	0.00261031
8.80946	902.92	0.000351921	6228.01	0.00242742
8.85766	902.613	0.000459709	6225.89	0.0031709
8.89691	902.407	0.000323337	6224.47	0.00223026
8.94141	903.201	0.000452203	6229.95	0.00311913
8.98688	902.721	0.000407367	6226.63	0.00280987
8.99996	903.368	0.00036607	6231.1	0.00252502