File: data/monolayers/nanoparticles/Ol_CoFe_C/vsm/rescale/DD67_LangevinSAXSscaled.xye
#Executed at: 2018-11-13 00:53:52.3006
#Loaded File	 = ../rawdata/DD172_6_HYST_300K.DAT
#particle info	 = Superball Model, r = 56.2266 A, p = 1.53774
#fit report	 = [[Fit Statistics]]
#    # fitting method   = leastsq
#    # function evals   = 96
#    # data points      = 2218
#    # variables        = 3
#    chi-square         = 4102388.52
#    reduced chi-square = 1852.09
#    Akaike info crit   = 16691.4
#    Bayesian info crit = 16708.5
#[[Variables]]
#    Ms:     1402.73 +/- 4.95269 (0.35%) (init = 1)
#    mu:     3792.92 +/- 24.1088 (0.64%) (init = 10000)
#    chi:    843.033 +/- 3.04624 (0.36%) (init = -0.035)
#    sigMu:  0.2780069 (fixed)
#    T:      300 (fixed)
#[[Correlations]] (unreported correlations are < 0.100)
#    C(Ms, chi) = -0.959
#    C(Ms, mu)  = -0.907
#    C(mu, chi) =  0.806
#Ms Should	 = 34.2709 kA/m
#Rescale Factor	 = 0.0244316
#[[Data]]
#B/T	M/kAm-1	sM/kAm-1	M_raw/memu	sM_raw/memu
1.2179e-05	-0.317632	0.0107017	-13.0009	0.438027
0.0070673	0.922908	0.0224156	37.7751	0.917482
0.0166465	2.23916	0.0225801	91.65	0.924215
0.0264848	3.91554	0.021646	160.265	0.88598
0.0366265	5.51187	0.0210698	225.604	0.862399
0.0463777	7.03384	0.0190199	287.899	0.778495
0.0562153	8.42679	0.0179497	344.913	0.734691
0.0673129	10.0655	0.0191569	411.986	0.784103
0.0796825	11.5615	0.0173656	473.219	0.710782
0.0892892	12.4085	0.0186636	507.887	0.763909
0.0989163	13.4672	0.0168016	551.22	0.687699
0.108397	14.4452	0.0135504	591.248	0.554624
0.119107	15.3966	0.0154642	630.191	0.632959
0.128471	16.2852	0.0121747	666.563	0.498317
0.138068	17.116	0.0141282	700.567	0.578273
0.148178	17.9336	0.0144714	734.03	0.592322
0.15867	18.7053	0.0128793	765.618	0.527157
0.169774	19.6378	0.0136713	803.787	0.559573
0.181256	20.3354	0.0153545	832.337	0.628466
0.191626	21.0259	0.0147231	860.603	0.602626
0.201477	21.6704	0.0140797	886.98	0.57629
0.211585	22.3021	0.0130356	912.835	0.533554
0.221681	22.9313	0.0119158	938.592	0.487722
0.232288	23.6769	0.0116132	969.109	0.475334
0.24315	24.2657	0.0141786	993.207	0.580337
0.254133	24.9735	0.0139865	1022.18	0.572473
0.263862	25.3779	0.0112098	1038.73	0.458824
0.273702	25.9318	0.011636	1061.4	0.476267
0.283726	26.4553	0.0130968	1082.83	0.536057
0.293817	26.9734	0.0134102	1104.04	0.548886
0.305059	27.6213	0.0130775	1130.55	0.535267
0.316266	28.1037	0.01194	1150.3	0.488711
0.327769	28.7159	0.0136577	1175.36	0.559017
0.337481	29.2185	0.0139333	1195.93	0.570295
0.348447	29.6688	0.0107342	1214.36	0.439358
0.35932	30.2568	0.0135189	1238.43	0.553334
0.369315	30.7213	0.0141831	1257.44	0.580522
0.382642	31.2796	0.0131641	1280.29	0.538815
0.39339	31.7179	0.0146637	1298.23	0.600194
0.403126	32.1568	0.0127803	1316.19	0.523105
0.412231	32.5884	0.0140316	1333.86	0.574319
0.422979	33.0125	0.0138471	1351.22	0.56677
0.433699	33.5238	0.0120115	1372.15	0.491635
0.443841	33.9379	0.0117832	1389.1	0.482291
0.454957	34.347	0.0150923	1405.84	0.617734
0.465698	34.774	0.0154771	1423.32	0.633485
0.478054	35.2693	0.013519	1443.59	0.553341
0.488544	35.7552	0.0122931	1463.48	0.503163
0.498923	36.1247	0.013227	1478.6	0.541388
0.509388	36.5194	0.0150765	1494.76	0.617091
0.519387	36.8942	0.013391	1510.1	0.548101
0.530007	37.2721	0.0136107	1525.57	0.557095
0.541104	37.6219	0.0127354	1539.88	0.521266
0.551473	38.0914	0.0165093	1559.1	0.675734
0.560954	38.3671	0.0151426	1570.38	0.619793
0.571689	38.8117	0.0147597	1588.58	0.604123
0.583324	39.1723	0.0144187	1603.34	0.590163
0.593165	39.5462	0.0148377	1618.65	0.607315
0.602519	39.8841	0.0136329	1632.48	0.558001
0.612422	40.23	0.014916	1646.63	0.610521
0.622926	40.5634	0.0170284	1660.28	0.696981
0.633537	40.9982	0.0170858	1678.08	0.699329
0.643912	41.342	0.0148141	1692.15	0.606349
0.654138	41.6712	0.0142742	1705.62	0.584252
0.664391	42.0011	0.0140685	1719.13	0.575832
0.674117	42.3357	0.0161038	1732.82	0.659136
0.686226	42.7303	0.0147951	1748.97	0.605571
0.697238	43.0561	0.0169826	1762.31	0.695107
0.706726	43.3665	0.0162267	1775.01	0.664166
0.716459	43.6936	0.019419	1788.4	0.794831
0.728333	44.0706	0.0134991	1803.83	0.552526
0.738466	44.3943	0.0152854	1817.08	0.625638
0.747929	44.6261	0.0180906	1826.57	0.740459
0.757831	44.9355	0.0142866	1839.23	0.58476
0.768948	45.315	0.0133537	1854.76	0.546572
0.77943	45.6044	0.0157619	1866.61	0.645142
0.790558	45.8824	0.0188122	1877.99	0.769994
0.801157	46.2587	0.0184147	1893.39	0.753724
0.811786	46.5669	0.0195436	1906.01	0.799931
0.821162	46.8556	0.0180117	1917.82	0.737228
0.832769	47.133	0.0175721	1929.18	0.719236
0.844007	47.506	0.0202747	1944.44	0.829852
0.854146	47.7925	0.0215209	1956.17	0.88086
0.863662	48.0667	0.0189921	1967.4	0.777358
0.874006	48.328	0.0174515	1978.09	0.7143
0.883469	48.6306	0.0208395	1990.47	0.852973
0.895045	48.9015	0.0167391	2001.57	0.685141
0.90229	49.1669	0.0160043	2012.43	0.655063
0.913543	49.4512	0.0197117	2024.06	0.80681
0.924048	49.7128	0.0146846	2034.77	0.601048
0.934571	49.9682	0.0179837	2045.22	0.736081
0.943634	50.2481	0.0173936	2056.68	0.711928
0.955046	50.5191	0.0204087	2067.77	0.83534
0.965526	50.8488	0.0249315	2081.27	1.02046
0.97541	51.0278	0.0143366	2088.6	0.586806
0.98552	51.2935	0.0189007	2099.47	0.773615
0.998026	51.6928	0.0175091	2115.81	0.716656
1.00965	51.937	0.019752	2125.81	0.80846
1.01911	52.2041	0.0183413	2136.74	0.750719
1.03184	52.4941	0.0181302	2148.61	0.742077
1.04223	52.7532	0.021012	2159.21	0.860032
1.05458	53.0622	0.0266899	2171.87	1.09243
1.06497	53.3451	0.0199158	2183.44	0.815166
1.0757	53.6284	0.0198917	2195.04	0.814177
1.08508	53.7918	0.0213264	2201.73	0.872899
1.0952	54.0373	0.0210462	2211.77	0.861431
1.10844	54.3344	0.0186242	2223.94	0.762297
1.11903	54.6334	0.0200623	2236.17	0.821159
1.12818	54.7881	0.0227332	2242.51	0.93048
1.13854	55.0969	0.0229196	2255.14	0.938109
1.14855	55.3353	0.0171815	2264.9	0.703248
1.16016	55.5682	0.0233982	2274.43	0.957702
1.1699	55.8027	0.0179434	2284.03	0.734432
1.18206	56.0866	0.0218035	2295.65	0.892429
1.19265	56.3258	0.0242006	2305.45	0.990543
1.2039	56.5846	0.0202377	2316.04	0.828341
1.21552	56.8273	0.0206962	2325.97	0.847107
1.22748	57.0817	0.023844	2336.38	0.975949
1.23785	57.335	0.0191317	2346.75	0.783072
1.24836	57.5853	0.021287	2357	0.871287
1.25823	57.8261	0.0282761	2366.85	1.15735
1.26896	58.0451	0.0186384	2375.81	0.762879
1.28059	58.2993	0.0245306	2386.22	1.00405
1.29183	58.5197	0.0254549	2395.24	1.04188
1.30258	58.7601	0.0273079	2405.08	1.11773
1.31337	59.0085	0.0251672	2415.25	1.03011
1.32391	59.2174	0.0287242	2423.8	1.1757
1.33559	59.4787	0.020688	2434.49	0.846769
1.34645	59.6729	0.0235936	2442.44	0.965697
1.35806	59.9372	0.0260946	2453.26	1.06807
1.36856	60.1591	0.0247249	2462.34	1.012
1.38207	60.4201	0.0237828	2473.03	0.973443
1.39266	60.6631	0.0207739	2482.97	0.850285
1.40317	60.87	0.0209721	2491.44	0.8584
1.41344	61.0684	0.0208965	2499.56	0.855303
1.42528	61.3199	0.0278762	2509.86	1.14099
1.43516	61.4661	0.0263373	2515.84	1.078
1.4454	61.7391	0.0231332	2527.01	0.946856
1.45773	61.9109	0.0249735	2534.04	1.02218
1.46762	62.0925	0.0226497	2541.48	0.927066
1.4779	62.3527	0.0208933	2552.13	0.855173
1.48799	62.5371	0.024007	2559.68	0.982618
1.49627	62.7435	0.0267127	2568.12	1.09336
1.50758	62.9453	0.0255175	2576.38	1.04444
1.5147	63.1012	0.0273453	2582.77	1.11926
1.52736	63.269	0.0255735	2589.63	1.04673
1.53481	63.4642	0.0238847	2597.62	0.977613
1.54762	63.709	0.0258299	2607.64	1.05723
1.55883	63.9013	0.0342994	2615.51	1.40389
1.57009	64.0683	0.0256564	2622.35	1.05013
1.58069	64.3098	0.0224185	2632.23	0.917601
1.5907	64.4841	0.0224815	2639.37	0.920181
1.60208	64.6783	0.0242829	2647.31	0.993912
1.61267	64.9006	0.027676	2656.41	1.13279
1.6214	65.0237	0.0366029	2661.45	1.49817
1.62919	65.2349	0.0282341	2670.1	1.15564
1.64095	65.4144	0.0293051	2677.45	1.19947
1.65368	65.644	0.040396	2686.84	1.65343
1.66428	65.8073	0.0305087	2693.53	1.24874
1.67486	65.9739	0.0235958	2700.35	0.965787
1.6857	66.2151	0.0196322	2710.22	0.803557
1.6969	66.3768	0.0288126	2716.84	1.17931
1.70651	66.5581	0.0198924	2724.26	0.814208
1.71725	66.7942	0.0306792	2733.92	1.25572
1.72857	66.9687	0.0301284	2741.06	1.23317
1.74026	67.197	0.0251406	2750.41	1.02902
1.75024	67.3221	0.029387	2755.53	1.20282
1.76061	67.5277	0.0307228	2763.95	1.2575
1.77033	67.6985	0.0293154	2770.93	1.1999
1.78057	67.8545	0.0315189	2777.32	1.29008
1.79109	68.0097	0.0377727	2783.67	1.54606
1.80093	68.191	0.0325318	2791.09	1.33154
1.81088	68.3623	0.0272479	2798.1	1.11527
1.82046	68.5178	0.0388874	2804.47	1.59168
1.83095	68.6784	0.0322807	2811.04	1.32127
1.84258	68.8972	0.0236554	2820	0.968227
1.85255	69.0703	0.0284289	2827.08	1.16361
1.86093	69.1849	0.0289714	2831.77	1.18581
1.87217	69.35	0.0410903	2838.53	1.68185
1.88242	69.5341	0.0274929	2846.07	1.1253
1.89289	69.7181	0.0348301	2853.6	1.42561
1.90363	69.8918	0.0392611	2860.71	1.60698
1.91465	70.0273	0.0328448	2866.25	1.34436
1.92503	70.2609	0.0308452	2875.81	1.26251
1.93497	70.3742	0.035437	2880.45	1.45046
1.94559	70.5701	0.0244361	2888.47	1.00018
1.95636	70.7473	0.0256643	2895.73	1.05045
1.96685	70.9262	0.035663	2903.05	1.4597
1.97784	71.0952	0.0250673	2909.96	1.02602
1.9891	71.2386	0.0337203	2915.83	1.38019
1.995	71.4106	0.0306149	2922.87	1.25309
1.98414	71.278	0.0365388	2917.45	1.49555
1.97213	71.053	0.0255731	2908.24	1.04672
1.96063	70.869	0.0305772	2900.71	1.25154
1.94953	70.7073	0.032524	2894.09	1.33123
1.93938	70.5606	0.0315194	2888.08	1.2901
1.92802	70.3769	0.023791	2880.56	0.973779
1.91866	70.2009	0.0265561	2873.36	1.08695
1.90729	70.0258	0.0277017	2866.19	1.13385
1.89481	69.8172	0.0251395	2857.65	1.02897
1.88446	69.688	0.0242267	2852.37	0.99161
1.87344	69.476	0.0308677	2843.69	1.26343
1.86297	69.2963	0.0331815	2836.33	1.35814
1.85122	69.0829	0.0325765	2827.6	1.33337
1.83985	68.9294	0.0314962	2821.32	1.28916
1.82987	68.7796	0.033857	2815.19	1.38578
1.81998	68.5987	0.0337268	2807.78	1.38046
1.80973	68.4324	0.0261971	2800.97	1.07226
1.79624	68.2101	0.0269709	2791.88	1.10393
1.78614	67.9927	0.0229484	2782.98	0.939291
1.77675	67.8812	0.0289284	2778.41	1.18406
1.76675	67.7166	0.0296994	2771.67	1.21561
1.75664	67.5354	0.0291056	2764.26	1.19131
1.74664	67.3696	0.032356	2757.47	1.32435
1.73653	67.2055	0.030236	2750.76	1.23758
1.72605	66.948	0.0329891	2740.22	1.35026
1.71455	66.802	0.0303545	2734.24	1.24243
1.70355	66.5906	0.0244075	2725.59	0.999012
1.69217	66.4066	0.0248694	2718.06	1.01792
1.68068	66.1841	0.0284687	2708.95	1.16524
1.66932	65.9843	0.0267536	2700.77	1.09504
1.65997	65.8372	0.0237917	2694.75	0.973807
1.64934	65.6515	0.0263117	2687.15	1.07695
1.63761	65.4206	0.0276609	2677.7	1.13217
1.62587	65.2134	0.0203399	2669.22	0.832523
1.61499	65.0025	0.0257078	2660.59	1.05223
1.60451	64.8254	0.0366015	2653.34	1.49812
1.5945	64.6682	0.0263752	2646.9	1.07955
1.58562	64.4759	0.0244616	2639.03	1.00122
1.57501	64.277	0.0241087	2630.89	0.986782
1.56365	64.0389	0.0246769	2621.15	1.01004
1.5519	63.8564	0.0212741	2613.68	0.870759
1.54079	63.6223	0.02337	2604.09	0.956546
1.53056	63.4336	0.0283403	2596.37	1.15998
1.51966	63.2242	0.0265749	2587.8	1.08772
1.50953	63.0085	0.0208325	2578.97	0.852683
1.49681	62.8246	0.0188497	2571.44	0.771527
1.48568	62.5725	0.0235352	2561.12	0.963308
1.47656	62.3719	0.0260909	2552.92	1.06792
1.46694	62.2321	0.0228548	2547.19	0.935457
1.45534	61.9891	0.0310677	2537.24	1.27162
1.44646	61.781	0.025316	2528.73	1.0362
1.43561	61.5853	0.0215588	2520.72	0.882413
1.42484	61.398	0.0283711	2513.05	1.16124
1.41334	61.1324	0.0240743	2502.18	0.985375
1.40098	60.8917	0.0210953	2492.33	0.86344
1.39089	60.6767	0.0232403	2483.53	0.951238
1.37901	60.4342	0.0190058	2473.6	0.777917
1.36865	60.2066	0.0198168	2464.29	0.811113
1.35875	60.0291	0.0230908	2457.02	0.945119
1.34665	59.7738	0.0225218	2446.57	0.921827
1.33591	59.553	0.0241453	2437.53	0.988281
1.32539	59.3249	0.0281029	2428.2	1.15027
1.31551	59.1304	0.0221258	2420.24	0.905622
1.30427	58.8727	0.0234943	2409.69	0.961633
1.29425	58.6907	0.0232867	2402.24	0.953137
1.28405	58.4303	0.0190014	2391.58	0.777738
1.2739	58.2178	0.018088	2382.89	0.740353
1.26391	58.0156	0.0187138	2374.61	0.765964
1.25242	57.7806	0.0249887	2364.99	1.0228
1.24443	57.6196	0.0255753	2358.4	1.04681
1.23344	57.3643	0.0197101	2347.95	0.806746
1.22207	57.1258	0.0222228	2338.19	0.909589
1.21182	56.8522	0.0229632	2326.99	0.939894
1.20059	56.6249	0.0240086	2317.69	0.982683
1.18958	56.3256	0.020813	2305.44	0.851887
1.17873	56.1016	0.0215361	2296.27	0.881482
1.16923	55.9013	0.0173691	2288.07	0.710926
1.15962	55.6949	0.018936	2279.62	0.775061
1.14861	55.4127	0.0185227	2268.07	0.758145
1.13778	55.1863	0.0195606	2258.81	0.800627
1.12489	54.8254	0.013864	2244.03	0.567463
1.11464	54.6572	0.0153497	2237.15	0.62827
1.10142	54.3111	0.0267431	2222.98	1.09461
1.09204	54.0976	0.0167437	2214.24	0.68533
1.0803	53.8124	0.0198384	2202.57	0.811995
1.06967	53.5764	0.0207562	2192.91	0.849561
1.05931	53.2722	0.0240192	2180.46	0.983116
1.04743	53.0072	0.0184256	2169.61	0.754171
1.03681	52.7199	0.013744	2157.85	0.562547
1.02594	52.4599	0.0175311	2147.21	0.717557
1.01657	52.199	0.0194838	2136.53	0.797482
1.00507	51.8881	0.0206879	2123.81	0.846766
0.994354	51.6302	0.0173402	2113.25	0.709742
0.983874	51.3887	0.0184434	2103.37	0.754897
0.973339	51.1172	0.0176718	2092.25	0.723317
0.962134	50.7917	0.0156795	2078.93	0.641769
0.951755	50.5241	0.0175881	2067.98	0.719891
0.942147	50.2593	0.0181451	2057.14	0.742688
0.929761	50.0271	0.0205173	2047.63	0.839783
0.918757	49.6724	0.0151423	2033.12	0.619783
0.907643	49.3853	0.0133199	2021.37	0.54519
0.896905	49.0525	0.0158693	2007.74	0.649538
0.885832	48.7843	0.01628	1996.77	0.66635
0.876345	48.4922	0.0203788	1984.81	0.834116
0.866612	48.2227	0.0155627	1973.78	0.63699
0.856489	47.9379	0.0160707	1962.12	0.657783
0.847256	47.7305	0.017891	1953.63	0.73229
0.836986	47.3721	0.01625	1938.96	0.66512
0.826994	47.0771	0.0173875	1926.89	0.711678
0.81751	46.8744	0.0169189	1918.59	0.692498
0.806732	46.5157	0.0115651	1903.91	0.473367
0.796269	46.2049	0.0166721	1891.19	0.682396
0.786148	45.9214	0.0143612	1879.58	0.587812
0.775779	45.6022	0.01739	1866.52	0.711784
0.764909	45.251	0.0190905	1852.14	0.781386
0.752182	44.9358	0.0174422	1839.24	0.713918
0.742267	44.6238	0.0147664	1826.48	0.604396
0.731423	44.2591	0.0126879	1811.55	0.519323
0.721073	43.9353	0.0148892	1798.3	0.609422
0.712458	43.6954	0.018414	1788.48	0.753695
0.70172	43.288	0.0150138	1771.8	0.614523
0.69145	42.9674	0.0129412	1758.68	0.529689
0.681582	42.6827	0.0187411	1747.02	0.767083
0.670846	42.3269	0.0146688	1732.46	0.6004
0.660872	42.0051	0.0166592	1719.29	0.681869
0.647249	41.4802	0.0148611	1697.81	0.608273
0.637083	41.1862	0.0187211	1685.77	0.766263
0.625607	40.8295	0.0165679	1671.17	0.678133
0.613899	40.4008	0.0162763	1653.63	0.666197
0.603029	40.053	0.0136822	1639.39	0.560021
0.592977	39.7106	0.0150719	1625.37	0.616902
0.582998	39.3622	0.015039	1611.12	0.615556
0.571266	38.9128	0.0142268	1592.72	0.582309
0.561768	38.5565	0.0136634	1578.14	0.559249
0.551289	38.1902	0.0156486	1563.14	0.640503
0.542166	37.8237	0.0150546	1548.14	0.616192
0.529183	37.3603	0.0102011	1529.18	0.417538
0.519174	36.9713	0.0148233	1513.25	0.606724
0.508064	36.5883	0.0137947	1497.58	0.564624
0.495594	36.1116	0.0140549	1478.07	0.575272
0.485103	35.6347	0.0149786	1458.55	0.613081
0.475198	35.2455	0.0132655	1442.62	0.542963
0.465103	34.9425	0.0122486	1430.21	0.501341
0.454726	34.4385	0.0117393	1409.58	0.480496
0.443581	34.0246	0.0146193	1392.65	0.598377
0.433569	33.6102	0.0144996	1375.68	0.593475
0.423334	33.1898	0.014582	1358.48	0.596851
0.412957	32.7641	0.0117578	1341.05	0.481251
0.401458	32.236	0.0123872	1319.44	0.507015
0.390226	31.7933	0.0124852	1301.31	0.511024
0.379222	31.2345	0.0117089	1278.44	0.479249
0.369475	30.7946	0.0127693	1260.44	0.522655
0.359605	30.3347	0.013282	1241.62	0.543641
0.346836	29.7581	0.0129492	1218.02	0.530019
0.335111	29.2924	0.0128897	1198.95	0.527584
0.325355	28.8005	0.0120589	1178.82	0.493579
0.315143	28.3238	0.0105652	1159.31	0.432438
0.305008	27.6974	0.0136783	1133.67	0.559859
0.294989	27.1855	0.011228	1112.72	0.459568
0.284772	26.6682	0.0120784	1091.54	0.494373
0.273903	26.1607	0.014865	1070.77	0.608433
0.264036	25.6166	0.0148294	1048.5	0.606975
0.255294	25.1973	0.0138198	1031.34	0.565651
0.245281	24.6297	0.0112569	1008.11	0.460751
0.234156	23.9253	0.0118743	979.273	0.48602
0.221946	23.1756	0.0143567	948.589	0.587628
0.211043	22.5521	0.0124018	923.068	0.507611
0.198836	21.7609	0.0117352	890.687	0.480329
0.187694	21.1208	0.0107875	864.484	0.441538
0.177085	20.2724	0.0135376	829.758	0.554101
0.167452	19.5578	0.0126946	800.511	0.519595
0.156484	18.8225	0.0129891	770.415	0.531649
0.145719	18.0605	0.0139624	739.227	0.571487
0.135968	17.2478	0.0159969	705.961	0.65476
0.125452	16.1948	0.0148827	662.863	0.609157
0.114466	15.3027	0.0162855	626.347	0.666573
0.105091	14.3515	0.0152047	587.413	0.622335
0.0957166	13.6072	0.0155646	556.95	0.637067
0.0857432	12.5668	0.018151	514.366	0.742931
0.0737414	11.1529	0.0157731	456.495	0.6456
0.0640138	9.94321	0.0188203	406.981	0.770325
0.0553781	8.96497	0.0177136	366.941	0.725026
0.045134	7.60513	0.0194999	311.282	0.79814
0.0355102	6.13817	0.0187756	251.238	0.768496
0.0250159	4.1729	0.0208735	170.799	0.854364
0.0151478	2.49682	0.0208131	102.196	0.851892
0.00340319	0.765983	0.0205414	31.3521	0.84077
-0.00658787	-0.998342	0.0229209	-40.8627	0.938165
-0.0158306	-2.73219	0.0229559	-111.83	0.939596
-0.0258252	-4.39604	0.023513	-179.932	0.962397
-0.0360917	-5.95777	0.0203403	-243.854	0.832541
-0.0448191	-7.08189	0.0197465	-289.865	0.808233
-0.0545153	-8.4723	0.0194575	-346.775	0.796404
-0.0642542	-9.79745	0.0172264	-401.015	0.705085
-0.0752733	-11.304	0.016251	-462.679	0.665161
-0.0854875	-12.4192	0.0162612	-508.325	0.66558
-0.0967602	-13.7439	0.0148294	-562.546	0.606973
-0.106975	-14.7051	0.0149716	-601.886	0.612794
-0.117188	-15.6288	0.0162303	-639.693	0.664314
-0.127167	-16.5092	0.0114643	-675.731	0.469238
-0.137285	-17.3449	0.0134478	-709.935	0.550426
-0.147139	-18.1464	0.0125625	-742.74	0.51419
-0.157243	-18.8949	0.0139343	-773.376	0.570339
-0.167616	-19.629	0.0112584	-803.424	0.460813
-0.179231	-20.5098	0.0128714	-839.476	0.526834
-0.189085	-21.1736	0.0142822	-866.648	0.584577
-0.198047	-21.8282	0.0135375	-893.439	0.554096
-0.209018	-22.2934	0.0124733	-912.48	0.510537
-0.215554	-22.9067	0.0123336	-937.584	0.504822
-0.227367	-23.5078	0.0156155	-962.186	0.639151
-0.238215	-24.0879	0.0135229	-985.93	0.553498
-0.250223	-24.8046	0.0145959	-1015.26	0.597419
-0.260946	-25.3634	0.0129989	-1038.14	0.532053
-0.271694	-26.0345	0.0118263	-1065.6	0.484058
-0.282065	-26.5651	0.0140607	-1087.32	0.575513
-0.291185	-27.0715	0.0139986	-1108.05	0.572969
-0.302284	-27.5779	0.0128757	-1128.78	0.52701
-0.31306	-28.0711	0.0130139	-1148.96	0.532667
-0.323926	-28.6912	0.0122961	-1174.35	0.503287
-0.334904	-29.17	0.0140352	-1193.94	0.574468
-0.345559	-29.6471	0.0124418	-1213.47	0.509249
-0.356159	-30.0946	0.0131712	-1231.79	0.539104
-0.36482	-30.5569	0.0135845	-1250.71	0.55602
-0.374793	-31.0158	0.0136642	-1269.49	0.559281
-0.38558	-31.5683	0.014878	-1292.11	0.608965
-0.395147	-31.8973	0.0122379	-1305.57	0.500905
-0.404679	-32.3236	0.0142099	-1323.02	0.581618
-0.414713	-32.7613	0.0129805	-1340.94	0.531299
-0.423935	-33.1771	0.0142224	-1357.95	0.58213
-0.435279	-33.6897	0.0115641	-1378.94	0.473323
-0.449567	-34.2034	0.0148706	-1399.96	0.608661
-0.460455	-34.6017	0.0112029	-1416.27	0.458539
-0.472039	-35.1252	0.0121803	-1437.69	0.498548
-0.482445	-35.5068	0.0155593	-1453.31	0.636848
-0.49557	-36.0015	0.0141868	-1473.56	0.580674
-0.505953	-36.3894	0.0153206	-1489.44	0.627079
-0.515292	-36.7438	0.0153039	-1503.94	0.626398
-0.525284	-37.1363	0.0151243	-1520.01	0.619046
-0.535946	-37.6034	0.0133662	-1539.13	0.547087
-0.546164	-37.8704	0.0162613	-1550.06	0.665585
-0.556653	-38.3468	0.016005	-1569.56	0.655094
-0.566543	-38.7015	0.0147524	-1584.07	0.603825
-0.579136	-39.1506	0.0117572	-1602.45	0.481227
-0.588877	-39.5093	0.0174632	-1617.13	0.714776
-0.599499	-39.8552	0.0128515	-1631.29	0.52602
-0.609759	-40.1935	0.015025	-1645.14	0.61498
-0.622151	-40.6196	0.0188507	-1662.58	0.77157
-0.632757	-40.9605	0.015053	-1676.54	0.616125
-0.642346	-41.2978	0.0140738	-1690.34	0.576048
-0.653459	-41.7254	0.0153932	-1707.84	0.630052
-0.66349	-41.9588	0.015639	-1717.4	0.640111
-0.673186	-42.3795	0.0119736	-1734.61	0.490085
-0.683471	-42.6878	0.0138719	-1747.23	0.567782
-0.695738	-43.0918	0.0135156	-1763.77	0.553199
-0.706483	-43.4133	0.0178682	-1776.93	0.731355
-0.716927	-43.7251	0.0154857	-1789.69	0.633838
-0.727061	-44.0435	0.0173363	-1802.72	0.709583
-0.737179	-44.3604	0.0154519	-1815.69	0.632453
-0.748711	-44.7401	0.0166488	-1831.24	0.681446
-0.759545	-45.0615	0.0155504	-1844.39	0.636486
-0.769323	-45.3551	0.0144906	-1856.41	0.593107
-0.779191	-45.6296	0.0166171	-1867.64	0.680149
-0.789007	-45.9436	0.0153061	-1880.5	0.626486
-0.801156	-46.3149	0.0187368	-1895.69	0.766907
-0.811665	-46.6094	0.0166542	-1907.75	0.681666
-0.821803	-46.8822	0.0156062	-1918.91	0.638771
-0.832148	-47.1819	0.0198406	-1931.18	0.812084
-0.84338	-47.5363	0.0183448	-1945.68	0.750861
-0.854748	-47.821	0.0169832	-1957.34	0.695133
-0.864989	-48.0988	0.0151316	-1968.71	0.619345
-0.876351	-48.4476	0.0173717	-1982.98	0.711031
-0.8875	-48.7322	0.0171325	-1994.63	0.701241
-0.898682	-49.0864	0.0139739	-2009.13	0.57196
-0.908405	-49.3554	0.0186927	-2020.14	0.765101
-0.91892	-49.6138	0.0150792	-2030.72	0.617201
-0.929171	-49.8951	0.0160722	-2042.23	0.657843
-0.939273	-50.1762	0.0207149	-2053.74	0.84787
-0.949169	-50.4192	0.0165029	-2063.68	0.675472
-0.960025	-50.7387	0.0144392	-2076.76	0.591003
-0.969774	-50.9527	0.0187447	-2085.52	0.76723
-0.979888	-51.2014	0.0226715	-2095.7	0.927956
-0.990638	-51.5309	0.0144081	-2109.18	0.589733
-1.00174	-51.7631	0.0194456	-2118.69	0.795918
-1.01195	-52.0194	0.014592	-2129.18	0.597256
-1.0236	-52.3442	0.0199829	-2142.48	0.817911
-1.03371	-52.5961	0.0182407	-2152.79	0.746602
-1.044	-52.8226	0.0167185	-2162.05	0.684296
-1.05448	-53.0909	0.015911	-2173.04	0.651244
-1.0663	-53.3974	0.0178608	-2185.58	0.731053
-1.07698	-53.6466	0.018114	-2195.78	0.741415
-1.08681	-53.8864	0.0178492	-2205.6	0.730577
-1.09881	-54.1932	0.0176581	-2218.16	0.722754
-1.10921	-54.4274	0.0176824	-2227.74	0.723751
-1.12192	-54.7228	0.0241546	-2239.83	0.988661
-1.13191	-54.9506	0.0150593	-2249.16	0.616386
-1.14305	-55.2405	0.0219097	-2261.02	0.896774
-1.15435	-55.4858	0.0151133	-2271.06	0.618593
-1.16378	-55.7133	0.0243792	-2280.38	0.997854
-1.17661	-55.9959	0.022848	-2291.94	0.935182
-1.18786	-56.2224	0.016641	-2301.21	0.681124
-1.19962	-56.5088	0.021274	-2312.93	0.870755
-1.20987	-56.7283	0.0241032	-2321.92	0.986557
-1.22086	-57.0234	0.0186376	-2334	0.762846
-1.23147	-57.2621	0.0244765	-2343.77	1.00184
-1.24194	-57.4619	0.0176076	-2351.95	0.720688
-1.25366	-57.7239	0.0189888	-2362.67	0.77722
-1.26272	-57.9533	0.0231187	-2372.06	0.94626
-1.27569	-58.2297	0.0213136	-2383.37	0.872376
-1.28631	-58.4335	0.0209113	-2391.71	0.855912
-1.29667	-58.6621	0.0244835	-2401.07	1.00212
-1.30708	-58.8721	0.0220351	-2409.66	0.901908
-1.31715	-59.0746	0.0207055	-2417.96	0.847488
-1.32733	-59.3328	0.0152291	-2428.52	0.623337
-1.33744	-59.5499	0.0203128	-2437.41	0.831414
-1.34807	-59.7594	0.0240333	-2445.98	0.983696
-1.35831	-59.9702	0.0214167	-2454.61	0.876596
-1.36831	-60.1951	0.0216768	-2463.81	0.887244
-1.37946	-60.3873	0.0225309	-2471.68	0.922203
-1.39055	-60.6281	0.0202585	-2481.54	0.829189
-1.39779	-60.7869	0.0169374	-2488.04	0.693258
-1.40952	-60.9733	0.0206033	-2495.67	0.843302
-1.42133	-61.237	0.0242974	-2506.46	0.994505
-1.43153	-61.4262	0.0218913	-2514.21	0.896021
-1.44189	-61.6457	0.0199723	-2523.19	0.817475
-1.45241	-61.8842	0.0150297	-2532.95	0.615174
-1.4629	-62.093	0.0224156	-2541.5	0.917481
-1.47314	-62.2643	0.0165958	-2548.51	0.679274
-1.48262	-62.4606	0.0180992	-2556.55	0.740808
-1.49323	-62.6588	0.0237099	-2564.66	0.970457
-1.5031	-62.8748	0.0207234	-2573.5	0.848219
-1.51256	-63.0472	0.022665	-2580.55	0.927689
-1.52583	-63.2895	0.0227814	-2590.47	0.932456
-1.53658	-63.4715	0.0234411	-2597.92	0.959456
-1.54882	-63.7167	0.0191076	-2607.96	0.782085
-1.55846	-63.9039	0.0182513	-2615.62	0.747036
-1.56881	-64.0855	0.0220801	-2623.05	0.903751
-1.57931	-64.2865	0.0178738	-2631.28	0.731584
-1.5904	-64.5019	0.0224766	-2640.1	0.919979
-1.60217	-64.7474	0.0209522	-2650.14	0.857585
-1.61368	-64.9155	0.0171718	-2657.03	0.702851
-1.62419	-65.1164	0.0252293	-2665.25	1.03265
-1.63467	-65.3382	0.0263202	-2674.33	1.0773
-1.64618	-65.4911	0.025817	-2680.58	1.0567
-1.65453	-65.6768	0.0236173	-2688.19	0.96667
-1.66852	-65.9006	0.0259078	-2697.34	1.06042
-1.67909	-66.0969	0.0248879	-2705.38	1.01868
-1.69154	-66.3146	0.0205767	-2714.29	0.842216
-1.70136	-66.4868	0.0199473	-2721.34	0.816453
-1.71035	-66.6596	0.02409	-2728.41	0.986018
-1.72123	-66.8282	0.0245735	-2735.31	1.00581
-1.73157	-67.0172	0.026536	-2743.05	1.08613
-1.74424	-67.2637	0.0281467	-2753.14	1.15206
-1.75585	-67.4349	0.0210894	-2760.15	0.863199
-1.76619	-67.6156	0.0217133	-2767.54	0.888736
-1.77623	-67.7635	0.0263027	-2773.59	1.07658
-1.78646	-67.9677	0.024873	-2781.95	1.01807
-1.80008	-68.1921	0.0230658	-2791.14	0.944094
-1.80969	-68.3833	0.027805	-2798.96	1.13807
-1.82168	-68.5804	0.0290827	-2807.03	1.19037
-1.8325	-68.7433	0.0220033	-2813.7	0.900607
-1.8463	-68.9379	0.0278672	-2821.67	1.14062
-1.85616	-69.1106	0.0309087	-2828.73	1.26511
-1.86691	-69.3538	0.0227483	-2838.69	0.931098
-1.87889	-69.5016	0.0304965	-2844.74	1.24824
-1.88927	-69.6871	0.0289807	-2852.33	1.1862
-1.9005	-69.8272	0.0287459	-2858.06	1.17658
-1.91151	-70.0116	0.0328595	-2865.61	1.34496
-1.92361	-70.2275	0.0238537	-2874.45	0.976342
-1.933	-70.3706	0.0303051	-2880.31	1.2404
-1.94649	-70.5841	0.0277581	-2889.04	1.13615
-1.95871	-70.7754	0.0296497	-2896.87	1.21358
-1.9687	-70.9291	0.0264671	-2903.16	1.08331
-1.97886	-71.0755	0.0205197	-2909.16	0.839883
-1.99051	-71.2654	0.0241117	-2916.93	0.986903
-1.99892	-71.4578	0.0278294	-2924.8	1.13907
-1.98793	-71.2595	0.0241888	-2916.69	0.990059
-1.97743	-71.0718	0.0354236	-2909	1.44991
-1.96645	-70.9609	0.0317746	-2904.47	1.30055
-1.95305	-70.7622	0.0306056	-2896.33	1.2527
-1.94131	-70.5431	0.0274599	-2887.37	1.12395
-1.93006	-70.3638	0.0264101	-2880.03	1.08098
-1.91971	-70.1715	0.0266705	-2872.16	1.09164
-1.90635	-69.9876	0.0212498	-2864.63	0.869767
-1.89485	-69.823	0.0281163	-2857.89	1.15081
-1.88386	-69.6364	0.0326055	-2850.26	1.33456
-1.87298	-69.4649	0.0297054	-2843.23	1.21586
-1.86138	-69.2458	0.0268292	-2834.26	1.09813
-1.84974	-69.0307	0.0332825	-2825.46	1.36227
-1.83925	-68.8571	0.026905	-2818.36	1.10124
-1.82938	-68.7114	0.0272302	-2812.39	1.11455
-1.81963	-68.529	0.0326954	-2804.93	1.33824
-1.80789	-68.3474	0.0234312	-2797.49	0.959051
-1.79717	-68.1767	0.0283361	-2790.51	1.15981
-1.78628	-68.0117	0.0248438	-2783.76	1.01687
-1.77478	-67.7911	0.0310503	-2774.73	1.27091
-1.76488	-67.6034	0.0375362	-2767.04	1.53637
-1.75291	-67.434	0.0248873	-2760.11	1.01865
-1.74104	-67.2123	0.0312484	-2751.03	1.27901
-1.72993	-67.0264	0.0236528	-2743.42	0.96812
-1.71968	-66.838	0.0262833	-2735.72	1.07579
-1.70768	-66.6169	0.0237896	-2726.67	0.973721
-1.69644	-66.4292	0.0259932	-2718.98	1.06392
-1.68483	-66.2054	0.029398	-2709.82	1.20328
-1.67436	-66.0397	0.0240663	-2703.04	0.985046
-1.66321	-65.8753	0.0263697	-2696.31	1.07933
-1.65335	-65.6782	0.0265531	-2688.24	1.08683
-1.64136	-65.4653	0.0231185	-2679.53	0.946252
-1.62736	-65.1837	0.0303727	-2668	1.24317
-1.61738	-65.0257	0.0258733	-2661.54	1.05901
-1.60685	-64.8395	0.0241632	-2653.91	0.989013
-1.59475	-64.5889	0.0260425	-2643.66	1.06593
-1.58203	-64.3567	0.0240174	-2634.15	0.983046
-1.57226	-64.1701	0.027353	-2626.52	1.11957
-1.56103	-64.0091	0.0247943	-2619.93	1.01484
-1.54942	-63.7609	0.029284	-2609.77	1.19861
-1.53831	-63.5666	0.0272293	-2601.81	1.11451
-1.5283	-63.3895	0.0292047	-2594.56	1.19536
-1.51744	-63.1223	0.0226518	-2583.63	0.927151
-1.50706	-62.957	0.0187043	-2576.86	0.765578
-1.49631	-62.7662	0.0233842	-2569.05	0.957128
-1.48283	-62.476	0.0243143	-2557.17	0.995196
-1.47183	-62.2754	0.0243109	-2548.96	0.995057
-1.4601	-62.0231	0.0296223	-2538.64	1.21246
-1.44849	-61.8297	0.0254791	-2530.72	1.04287
-1.43637	-61.594	0.0260351	-2521.07	1.06563
-1.42512	-61.3409	0.021436	-2510.71	0.877387
-1.41377	-61.0864	0.027154	-2500.3	1.11143
-1.40099	-60.8844	0.0295923	-2492.03	1.21123
-1.3915	-60.6829	0.0255776	-2483.78	1.0469
-1.38052	-60.4292	0.0196243	-2473.4	0.803231
-1.36964	-60.2341	0.0198055	-2465.41	0.810651
-1.35679	-59.9579	0.0230485	-2454.11	0.943387
-1.34576	-59.6977	0.0246419	-2443.46	1.00861
-1.33511	-59.4956	0.017684	-2435.19	0.723814
-1.32314	-59.2207	0.0212606	-2423.94	0.870206
-1.31214	-59.0229	0.0185298	-2415.84	0.758436
-1.30089	-58.7682	0.0247064	-2405.41	1.01124
-1.28915	-58.5424	0.0226712	-2396.17	0.927945
-1.2773	-58.278	0.0151544	-2385.35	0.620279
-1.26653	-58.0518	0.0230499	-2376.09	0.943446
-1.25528	-57.8002	0.0256965	-2365.79	1.05177
-1.24506	-57.5807	0.0229142	-2356.81	0.93789
-1.2348	-57.3449	0.0208158	-2347.15	0.852
-1.22396	-57.1186	0.0193853	-2337.89	0.79345
-1.21035	-56.796	0.0198526	-2324.69	0.812575
-1.19996	-56.571	0.0262043	-2315.48	1.07256
-1.18971	-56.3468	0.0135401	-2306.3	0.554203
-1.1786	-56.067	0.0261126	-2294.85	1.0688
-1.16733	-55.8273	0.0203563	-2285.04	0.833194
-1.15536	-55.5153	0.0209895	-2272.27	0.85911
-1.14484	-55.3083	0.0196671	-2263.8	0.804985
-1.13347	-55.0122	0.0212943	-2251.68	0.871587
-1.12212	-54.7833	0.0199847	-2242.31	0.817985
-1.10839	-54.4277	0.0163383	-2227.75	0.668736
-1.09589	-54.1803	0.0201612	-2217.63	0.825207
-1.08477	-53.8674	0.0208781	-2204.82	0.854552
-1.07476	-53.6312	0.0227764	-2195.15	0.932249
-1.06327	-53.3497	0.0188747	-2183.63	0.77255
-1.0529	-53.0916	0.0138282	-2173.07	0.565996
-1.0429	-52.8429	0.0235511	-2162.89	0.963958
-1.03206	-52.6047	0.0133133	-2153.14	0.544918
-1.02066	-52.2938	0.0192007	-2140.41	0.785896
-1.00944	-52.0234	0.0224303	-2129.34	0.918085
-0.999823	-51.7828	0.0186087	-2119.5	0.761664
-0.98796	-51.4396	0.0217996	-2105.45	0.89227
-0.977191	-51.201	0.020835	-2095.68	0.852786
-0.966216	-50.8768	0.0173129	-2082.41	0.708625
-0.95311	-50.5585	0.0194527	-2069.38	0.79621
-0.942351	-50.2914	0.0171202	-2058.45	0.700738
-0.93224	-50.0262	0.0176513	-2047.6	0.722477
-0.923125	-49.7409	0.0228972	-2035.92	0.937194
-0.912353	-49.4893	0.0206803	-2025.62	0.846454
-0.900998	-49.1352	0.0168293	-2011.13	0.688832
-0.889573	-48.8685	0.0181841	-2000.21	0.744286
-0.877805	-48.5296	0.0139197	-1986.34	0.569739
-0.86758	-48.2399	0.0188459	-1974.48	0.771374
-0.858821	-47.9726	0.0173404	-1963.54	0.70975
-0.8472	-47.6731	0.0160041	-1951.29	0.655057
-0.835595	-47.3097	0.0163859	-1936.41	0.670683
-0.825325	-47.0307	0.0183032	-1924.99	0.749159
-0.814615	-46.7462	0.0175383	-1913.35	0.71785
-0.802208	-46.3817	0.015375	-1898.43	0.629308
-0.791082	-46.082	0.0177626	-1886.16	0.727031
-0.780501	-45.7201	0.0207845	-1871.35	0.850722
-0.770774	-45.4196	0.0153723	-1859.05	0.629196
-0.759248	-45.1189	0.0173906	-1846.74	0.711805
-0.747897	-44.7481	0.0118035	-1831.56	0.483123
-0.735643	-44.3514	0.0160252	-1815.33	0.655918
-0.724268	-43.9579	0.0157165	-1799.22	0.643283
-0.713085	-43.6274	0.0150531	-1785.69	0.616131
-0.702388	-43.3157	0.0133127	-1772.93	0.544895
-0.692278	-43.0243	0.0147564	-1761.01	0.603985
-0.681657	-42.6067	0.0143519	-1743.91	0.587431
-0.670699	-42.2808	0.0131829	-1730.57	0.539582
-0.660187	-41.9555	0.0152291	-1717.26	0.623334
-0.649568	-41.6198	0.013948	-1703.52	0.570898
-0.638706	-41.1978	0.0153146	-1686.25	0.626834
-0.628835	-40.9449	0.0164603	-1675.9	0.67373
-0.618689	-40.5255	0.0143026	-1658.73	0.585415
-0.607072	-40.1716	0.0155702	-1644.24	0.637295
-0.597082	-39.828	0.0146188	-1630.18	0.598353
-0.584342	-39.3971	0.0144179	-1612.54	0.590133
-0.572847	-38.9377	0.0175646	-1593.74	0.718927
-0.561603	-38.4834	0.0157779	-1575.15	0.645797
-0.549885	-38.1258	0.0161606	-1560.51	0.661463
-0.539498	-37.6621	0.0149685	-1541.53	0.612667
-0.527753	-37.3062	0.0164949	-1526.96	0.675144
-0.517616	-36.923	0.0138187	-1511.28	0.565607
-0.507261	-36.4529	0.0170668	-1492.04	0.698552
-0.49527	-36.0638	0.0133409	-1476.11	0.546051
-0.483649	-35.5778	0.0124124	-1456.22	0.508047
-0.473281	-35.1886	0.0118188	-1440.29	0.48375
-0.465263	-34.8801	0.0141271	-1427.66	0.578228
-0.454252	-34.3897	0.0114159	-1407.59	0.467257
-0.442785	-33.9772	0.0140274	-1390.71	0.574147
-0.431628	-33.5581	0.0142547	-1373.55	0.583451
-0.421141	-33.0392	0.0132472	-1352.31	0.542216
-0.410282	-32.6069	0.0139273	-1334.62	0.570053
-0.400157	-32.1902	0.0122929	-1317.56	0.503154
-0.388413	-31.6276	0.0122552	-1294.53	0.50161
-0.378169	-31.1936	0.0151243	-1276.77	0.619044
-0.367429	-30.7333	0.0116038	-1257.93	0.474949
-0.355311	-30.1741	0.0120522	-1235.04	0.493302
-0.34491	-29.7091	0.0123857	-1216.01	0.506953
-0.33232	-29.0019	0.0108811	-1187.06	0.44537
-0.321591	-28.6309	0.012996	-1171.88	0.531932
-0.312189	-28.1523	0.0108431	-1152.29	0.443815
-0.302315	-27.6398	0.0116672	-1131.31	0.477546
-0.292327	-27.1443	0.0136151	-1111.03	0.557273
-0.283592	-26.48	0.0129344	-1083.84	0.529412
-0.272197	-26.0853	0.0113661	-1067.69	0.465219
-0.258593	-25.273	0.0116067	-1034.44	0.475068
-0.247976	-24.7249	0.0106227	-1012	0.434791
-0.239975	-24.2787	0.0106198	-993.741	0.434675
-0.22772	-23.5557	0.0119567	-964.149	0.489396
-0.216996	-22.8042	0.0119118	-933.387	0.487558
-0.206468	-22.184	0.0126479	-908.003	0.517685
-0.195958	-21.5214	0.0140784	-880.884	0.576236
-0.184987	-20.881	0.0152741	-854.671	0.625175
-0.174616	-20.0265	0.0139572	-819.696	0.571274
-0.162735	-19.2987	0.0137858	-789.908	0.564261
-0.153508	-18.5525	0.0143757	-759.363	0.588404
-0.14312	-17.7703	0.0119884	-727.347	0.490691
-0.131487	-16.7448	0.0136589	-685.374	0.559066
-0.121119	-15.8978	0.0138508	-650.706	0.566919
-0.110135	-14.9697	0.0130463	-612.719	0.533991
-0.0995351	-13.7847	0.015202	-564.217	0.622227
-0.0883836	-12.7432	0.0172281	-521.588	0.705155
-0.0792686	-11.6226	0.0202698	-475.721	0.829652
-0.0687852	-10.4412	0.0190614	-427.365	0.780194
-0.0575268	-9.18722	0.0173081	-376.038	0.708429
-0.047918	-7.83184	0.0192063	-320.561	0.786125
-0.0376664	-6.39481	0.0209212	-261.743	0.856317
-0.0259072	-4.42304	0.0220998	-181.037	0.904554
-0.0161424	-2.76606	0.0232808	-113.216	0.952895
-0.00555465	-1.03987	0.0211045	-42.5626	0.863818
0.00458789	0.722586	0.0188087	29.5758	0.769848
0.0145698	2.45131	0.0201169	100.333	0.823394
0.0253032	4.53667	0.020777	185.688	0.850414
0.0361527	6.09888	0.0212588	249.63	0.870134
0.0464011	7.56711	0.0199646	309.726	0.81716
0.0539285	8.93307	0.0196992	365.635	0.806299
0.0670215	10.219	0.0169929	418.267	0.69553
0.0780174	11.6844	0.0182305	478.249	0.746184
0.0909389	13.0545	0.0161923	534.329	0.662757
0.101068	14.0794	0.0161261	576.277	0.660051
0.111421	15.0289	0.0155673	615.139	0.637179
0.121662	15.9364	0.0163196	652.284	0.66797
0.132515	16.9975	0.0123411	695.718	0.505127
0.141883	17.626	0.0169685	721.44	0.694531
0.151559	18.4022	0.0127527	753.211	0.521974
0.162831	19.3385	0.0131378	791.536	0.537739
0.174315	20.0516	0.0118046	820.721	0.483167
0.184446	20.8903	0.0140508	855.052	0.575106
0.196397	21.5682	0.0150293	882.799	0.615157
0.207242	22.2044	0.013388	908.838	0.547978
0.217132	22.9747	0.0127139	940.365	0.520385
0.226999	23.4286	0.0129103	958.946	0.528425
0.238959	24.1451	0.0125875	988.27	0.515214
0.249686	24.853	0.0137613	1017.24	0.563256
0.258794	25.2535	0.0149063	1033.64	0.610124
0.268787	25.8006	0.0128203	1056.03	0.524742
0.278252	26.3314	0.0130141	1077.76	0.532674
0.289171	26.8698	0.0118696	1099.79	0.485827
0.298398	27.3655	0.0131075	1120.08	0.536497
0.308415	27.8741	0.0130715	1140.9	0.535022
0.32175	28.4996	0.014443	1166.5	0.591161
0.332609	29.0926	0.0126129	1190.78	0.516253
0.343488	29.5647	0.0129609	1210.1	0.530495
0.353972	30.0204	0.0130858	1228.75	0.53561
0.364836	30.4831	0.0152286	1247.69	0.623313
0.375483	31.0594	0.00981628	1271.28	0.401785
0.386492	31.492	0.0127234	1288.99	0.520774
0.397101	31.9476	0.0146908	1307.63	0.601303
0.407252	32.4722	0.0142075	1329.11	0.58152
0.417749	32.9024	0.0159499	1346.71	0.652836
0.428997	33.3281	0.0147062	1364.14	0.601931
0.439504	33.8454	0.0139835	1385.31	0.572353
0.449108	34.1493	0.0141656	1397.75	0.579804
0.459139	34.5479	0.0140327	1414.06	0.574367
0.469394	34.9582	0.0138518	1430.86	0.566962
0.480155	35.452	0.0151533	1451.07	0.620231
0.492514	35.9309	0.014646	1470.67	0.599468
0.503501	36.3219	0.0121946	1486.68	0.499133
0.514371	36.7059	0.013089	1502.39	0.535739
0.525434	37.1853	0.0145509	1522.02	0.595576
0.535749	37.5541	0.0136704	1537.11	0.559535
0.547876	37.9969	0.013794	1555.23	0.564595
0.560391	38.4593	0.0170118	1574.16	0.696301
0.571389	38.8265	0.0129273	1589.19	0.52912
0.581342	39.168	0.0176525	1603.16	0.722527
0.591981	39.5367	0.0145267	1618.26	0.594586
0.6039	39.9595	0.0170933	1635.56	0.699638
0.614201	40.3127	0.0194026	1650.02	0.794157
0.624313	40.6639	0.0173691	1664.39	0.710927
0.635919	41.086	0.0168026	1681.67	0.687739
0.644459	41.4194	0.0160894	1695.32	0.658547
0.656425	41.7442	0.0142132	1708.61	0.581753
0.667687	42.1405	0.0182656	1724.83	0.747622
0.678319	42.4957	0.0126653	1739.37	0.518397
0.688668	42.8268	0.0144809	1752.92	0.592711
0.699059	43.1245	0.0221766	1765.11	0.907701
0.711295	43.5349	0.0174607	1781.9	0.714675
0.72188	43.9246	0.0173182	1797.86	0.708842
0.731884	44.213	0.0180952	1809.66	0.740646
0.744413	44.5419	0.015025	1823.12	0.61498
0.7546375	44.9237	0.0236318	1838.75	0.96726
0.766777	45.2512	0.0282937	1852.16	1.15807
0.778372	45.5882	0.0191643	1865.95	0.784403
0.789392	45.9717	0.0151208	1881.65	0.618902
0.799582	46.2767	0.0160591	1894.13	0.657307
0.811195	46.5577	0.0188667	1905.63	0.772224
0.82112	46.8452	0.0143379	1917.4	0.586857
0.830205	47.1344	0.0168747	1929.24	0.690691
0.842513	47.4864	0.0223748	1943.64	0.915812
0.853576	47.7676	0.0206592	1955.15	0.84559
0.865414	48.1316	0.0200151	1970.05	0.81923
0.875685	48.3923	0.0149941	1980.72	0.613717
0.886454	48.6767	0.018457	1992.36	0.755456
0.897295	49.0274	0.0167432	2006.72	0.685306
0.907116	49.3075	0.0198888	2018.18	0.814058
0.918857	49.5707	0.01702	2028.95	0.696639
0.929479	49.9123	0.0159654	2042.93	0.653472
0.940237	50.1792	0.0184291	2053.86	0.754311
0.949908	50.4401	0.0152515	2064.54	0.624251
0.96083	50.7648	0.0215871	2077.83	0.88357
0.973214	51.0228	0.0224022	2088.39	0.916932
0.985112	51.3612	0.017277	2102.24	0.707158
0.997057	51.6808	0.021715	2115.32	0.888807
1.00782	51.93	0.0192402	2125.52	0.787512
1.02082	52.2449	0.0204359	2138.41	0.836451
1.03057	52.4878	0.0167646	2148.35	0.686183
1.04117	52.7444	0.0167271	2158.86	0.68465
1.05216	53.0564	0.0179644	2171.63	0.735294
1.06412	53.3521	0.0230672	2183.73	0.944153
1.07466	53.5986	0.0234275	2193.82	0.9589
1.08678	53.8402	0.0265018	2203.71	1.08473
1.09752	54.1378	0.0204972	2215.89	0.838961
1.10805	54.3914	0.019855	2226.27	0.812677
1.11961	54.6804	0.0183393	2238.1	0.750638
1.13184	54.9816	0.0172486	2250.43	0.705994
1.14398	55.1992	0.0219723	2259.33	0.899339
1.15445	55.497	0.0184025	2271.52	0.753224
1.1652	55.7312	0.0214054	2281.11	0.876133
1.17534	55.9503	0.0179493	2290.08	0.734674
1.18598	56.187	0.0225452	2299.76	0.922787
1.19696	56.4646	0.0260391	2311.12	1.06579
1.20746	56.6869	0.0229426	2320.23	0.939052
1.21983	56.9617	0.0221086	2331.47	0.904917
1.23191	57.2551	0.0238268	2343.48	0.975244
1.24318	57.4571	0.0224745	2351.75	0.919892
1.25393	57.7324	0.0136399	2363.02	0.558288
1.26406	57.9625	0.0227048	2372.43	0.929318
1.27484	58.1832	0.024519	2381.47	1.00358
1.28793	58.44	0.0149859	2391.98	0.613379
1.29878	58.6605	0.025409	2401.01	1.04
1.30953	58.9172	0.0235426	2411.51	0.96361
1.3215	59.1981	0.0199882	2423.01	0.818129
1.33326	59.3937	0.0235763	2431.01	0.96499
1.3433	59.6152	0.0232589	2440.08	0.951998
1.35401	59.8822	0.031125	2451.01	1.27396
1.36377	60.0362	0.0227057	2457.31	0.929354
1.37363	60.2432	0.019368	2465.78	0.792743
1.38449	60.4978	0.0284089	2476.21	1.16279
1.39575	60.7033	0.0215524	2484.62	0.882152
1.40546	60.8871	0.0208198	2492.14	0.852166
1.41685	61.1403	0.0254502	2502.5	1.04169
1.42789	61.3515	0.0247267	2511.15	1.01208
1.43925	61.5896	0.0288197	2520.89	1.1796
1.44949	61.7866	0.0262387	2528.96	1.07397
1.46118	62.0333	0.0270438	2539.06	1.10692
1.47373	62.245	0.0401427	2547.72	1.64306
1.48408	62.4899	0.0207925	2557.75	0.851048
1.49435	62.6757	0.0305347	2565.35	1.2498
1.50583	62.8562	0.0197186	2572.74	0.807091
1.51806	63.0853	0.0238933	2582.11	0.977963
1.52867	63.3066	0.0271525	2591.17	1.11137
1.54043	63.5268	0.0217926	2600.18	0.891983
1.55189	63.7731	0.0297012	2610.26	1.21568
1.5628	63.9486	0.019859	2617.45	0.812838
1.57412	64.1921	0.0276488	2627.41	1.13168
1.58647	64.4303	0.0213503	2637.17	0.87388
1.59901	64.6546	0.0288143	2646.35	1.17938
1.60952	64.8387	0.029097	2653.88	1.19095
1.6215	65.074	0.0236977	2663.51	0.96996
1.63273	65.2915	0.0293892	2672.41	1.20292
1.64485	65.4631	0.0249651	2679.44	1.02184
1.65437	65.6507	0.018895	2687.12	0.773382
1.66699	65.8735	0.0389539	2696.24	1.5944
1.67722	66.0412	0.0280352	2703.1	1.1475
1.68732	66.2388	0.0360832	2711.19	1.47691
1.70018	66.4674	0.0279443	2720.55	1.14377
1.71183	66.6398	0.0323307	2727.6	1.32331
1.72202	66.8393	0.0418024	2735.77	1.71099
1.73455	67.0497	0.0240998	2744.38	0.986418
1.74666	67.2709	0.0319888	2753.43	1.30932
1.75765	67.4437	0.0370383	2760.5	1.516
1.76969	67.6492	0.0353077	2768.92	1.44516
1.78117	67.8598	0.0280975	2777.54	1.15004
1.79314	68.0673	0.0275743	2786.03	1.12863
1.80414	68.256	0.0386527	2793.75	1.58208
1.81555	68.4059	0.0235483	2799.89	0.963845
1.82629	68.627	0.0306977	2808.94	1.25647
1.83654	68.7759	0.0305424	2815.03	1.25012
1.84843	68.989	0.0310514	2823.76	1.27095
1.86013	69.1727	0.0312306	2831.27	1.27828
1.8705	69.3172	0.0292352	2837.19	1.19661
1.88136	69.527	0.0338423	2845.77	1.38518
1.89537	69.7558	0.0281954	2855.14	1.15405
1.90667	69.9208	0.0327324	2861.9	1.33975
1.91834	70.1506	0.0342173	2871.3	1.40053
1.93009	70.3057	0.0195979	2877.65	0.802153
1.94264	70.4913	0.0300382	2885.25	1.22948
1.95296	70.6338	0.0338425	2891.08	1.38519
1.96546	70.8453	0.0285291	2899.73	1.16771
1.97624	71.0409	0.0355786	2907.74	1.45625
1.98707	71.2052	0.0274253	2914.46	1.12253
1.99708	71.3776	0.0329629	2921.52	1.34919
1.99166	71.3236	0.0341415	2919.31	1.39743
1.98018	71.1203	0.0413992	2910.99	1.69449
1.96743	70.9309	0.03254	2903.24	1.33188
1.95734	70.7943	0.0311872	2897.65	1.27651
1.94782	70.6354	0.0345046	2891.14	1.41229
1.93683	70.4764	0.0253641	2884.63	1.03817
1.92521	70.28	0.0289988	2876.59	1.18694
1.91533	70.088	0.0410187	2868.74	1.67892
1.90411	69.9642	0.0331102	2863.67	1.35522
1.89361	69.8044	0.032769	2857.13	1.34125
1.8815	69.5781	0.0319172	2847.87	1.30639
1.87139	69.4069	0.0337797	2840.86	1.38262
1.86063	69.2164	0.0349268	2833.06	1.42957
1.8489	69.0462	0.025851	2826.1	1.0581
1.83854	68.8444	0.0260897	2817.84	1.06786
1.8268	68.6703	0.0341817	2810.71	1.39907
1.81604	68.5076	0.029155	2804.05	1.19333
1.80504	68.2907	0.0300511	2795.18	1.23001
1.79445	68.1208	0.0231558	2788.22	0.947778
1.77954	67.8901	0.0297992	2778.78	1.2197
1.76882	67.7135	0.0225928	2771.55	0.924734
1.75817	67.5038	0.0319507	2762.97	1.30776
1.74721	67.3397	0.0246196	2756.25	1.00769
1.73445	67.1048	0.0352654	2746.63	1.44343
1.7237	66.9408	0.0225044	2739.92	0.921117
1.71271	66.7297	0.0248267	2731.28	1.01617
1.701575	66.5367	0.0301361	2723.38	1.23349
1.68883	66.3093	0.0210088	2714.07	0.8599
1.67708	66.0965	0.0270983	2705.36	1.10915
1.66353	65.8336	0.028257	2694.6	1.15657
1.65338	65.6435	0.0351596	2686.82	1.4391
1.6415	65.4691	0.0222087	2679.68	0.909015
1.62878	65.2616	0.0265114	2671.19	1.08513
1.61689	65.0083	0.0274654	2660.82	1.12417
1.60679	64.8439	0.0219849	2654.09	0.899852
1.5953	64.5965	0.0285526	2643.97	1.16867
1.58381	64.4411	0.0266693	2637.61	1.09159
1.57379	64.2685	0.0344003	2630.54	1.40802
1.56117	63.9852	0.0275581	2618.95	1.12797
1.55057	63.7724	0.0295742	2610.24	1.21049
1.53832	63.5276	0.0230038	2600.22	0.941559
1.52772	63.36	0.0270567	2593.36	1.10744
1.51384	63.121	0.0269335	2583.57	1.1024
1.5021	62.9132	0.0223874	2575.07	0.916328
1.49183	62.6918	0.0244551	2566.01	1.00096
1.48022	62.4419	0.0264328	2555.78	1.08191
1.46936	62.2429	0.0228945	2547.63	0.937084
1.45813	62.0101	0.0310875	2538.11	1.27243
1.44713	61.8059	0.0251729	2529.75	1.03034
1.43603	61.5575	0.0216584	2519.58	0.886489
1.4254	61.3528	0.0259606	2511.2	1.06258
1.41381	61.0761	0.0233044	2499.87	0.953863
1.40154	60.9125	0.025511	2493.18	1.04418
1.38792	60.6061	0.0198984	2480.64	0.81445
1.37705	60.4183	0.0236463	2472.95	0.967856
1.3663	60.1475	0.0282384	2461.87	1.15581
1.35518	59.928	0.0260816	2452.89	1.06753
1.34493	59.7389	0.0231467	2445.14	0.947405
1.33217	59.4603	0.0157934	2433.74	0.646431
1.3213	59.2732	0.0184839	2426.08	0.756554
1.31006	58.9906	0.0275625	2414.52	1.12815
1.29956	58.7623	0.0237127	2405.17	0.970573
1.28732	58.4997	0.0201898	2394.42	0.826381
1.27684	58.3069	0.0177286	2386.53	0.725639
1.26658	58.0918	0.0224804	2377.73	0.920135
1.25545	57.7965	0.0235815	2365.64	0.965203
1.24458	57.5754	0.0259965	2356.59	1.06405
1.23433	57.3679	0.0187045	2348.1	0.765587
1.22486	57.1454	0.023247	2338.99	0.951512
1.21337	56.8667	0.0213766	2327.58	0.874957
1.20125	56.5835	0.0213939	2315.99	0.875662
1.19102	56.3646	0.0260941	2307.03	1.06804
1.17978	56.1371	0.0245589	2297.72	1.00521
1.16704	55.8599	0.0202348	2286.38	0.828221
1.1563	55.563	0.0184192	2274.22	0.753907
1.14305	55.2743	0.0187672	2262.41	0.768151
1.13153	55.0282	0.0210239	2252.33	0.860518
1.12067	54.7348	0.0188112	2240.33	0.769953
1.11058	54.5058	0.0186833	2230.95	0.764716
1.09771	54.2129	0.0193518	2218.96	0.79208
1.08531	53.9261	0.0204859	2207.22	0.838497
1.07507	53.6706	0.0183695	2196.77	0.751874
1.06483	53.4143	0.0185005	2186.27	0.757236
1.05398	53.1072	0.0137176	2173.71	0.561467
1.04223	52.8765	0.0150143	2164.26	0.614543
1.03272	52.6283	0.0211297	2154.1	0.864848
1.02175	52.3009	0.0180676	2140.7	0.739516
1.00924	51.9844	0.0218934	2127.75	0.896108
0.999254	51.8017	0.0172167	2120.27	0.70469
0.988631	51.4887	0.0198468	2107.46	0.812339
0.977277	51.2199	0.0237913	2096.46	0.97379
0.967036	50.9455	0.0222282	2085.23	0.909811
0.955667	50.6232	0.017373	2072.03	0.711088
0.94454	50.388	0.0189465	2062.41	0.775491
0.933048	50.0515	0.0201273	2048.63	0.823819
0.922671	49.7808	0.0217302	2037.55	0.88943
0.909544	49.431	0.0162366	2023.24	0.664574
0.898443	49.0967	0.0183946	2009.55	0.752902
0.887131	48.8205	0.0179332	1998.25	0.734017
0.875376	48.4857	0.0163538	1984.55	0.669371
0.862662	48.1368	0.0178117	1970.26	0.729044
0.851774	47.7717	0.0158461	1955.32	0.648589
0.839285	47.4857	0.0158126	1943.61	0.647218
0.828636	47.1202	0.0162023	1928.66	0.663167
0.818293	46.8397	0.0189317	1917.17	0.774883
0.808663	46.5502	0.0166553	1905.33	0.681712
0.798797	46.256	0.0184464	1893.28	0.755021
0.785668	45.8884	0.0158403	1878.23	0.648351
0.774075	45.5811	0.0175471	1865.66	0.718213
0.762338	45.2188	0.0172793	1850.83	0.707252
0.75096	44.8303	0.0165056	1834.93	0.675581
0.737721	44.445	0.0160636	1819.16	0.657491
0.726736	44.063	0.0153281	1803.52	0.627388
0.714868	43.7421	0.0133846	1790.38	0.547838
0.704762	43.4408	0.0167563	1778.06	0.685844
0.693364	43.0172	0.0192819	1760.72	0.78922
0.681254	42.619	0.0201411	1744.42	0.824387
0.671138	42.3094	0.013328	1731.75	0.54552
0.660394	41.9882	0.0135705	1718.6	0.555449
0.65151	41.64	0.0160123	1704.35	0.655391
0.640673	41.319	0.0167705	1691.21	0.686423
0.62944	40.9066	0.0156727	1674.33	0.64149
0.619422	40.5572	0.0141002	1660.03	0.57713
0.60943	40.2014	0.0125664	1645.47	0.51435
0.598186	39.877	0.0124309	1632.19	0.508803
0.58781	39.518	0.0155978	1617.49	0.638424
0.576575	39.0607	0.0164785	1598.78	0.674474
0.566184	38.7064	0.0123225	1584.27	0.504366
0.554224	38.2541	0.0140826	1565.76	0.576408
0.543482	37.8932	0.0140379	1550.99	0.574579
0.532583	37.505	0.0157994	1535.1	0.646678
0.521737	37.0439	0.0119915	1516.23	0.490817
0.511013	36.6809	0.0160613	1501.37	0.657399
0.499883	36.2783	0.0112898	1484.89	0.462096
0.489623	35.9146	0.0140454	1470	0.574887
0.47899	35.4081	0.0139251	1449.27	0.569961
0.467651	35.0167	0.0146847	1433.25	0.601052
0.457416	34.6181	0.014419	1416.94	0.590177
0.447383	34.1095	0.0129452	1396.12	0.529854
0.434477	33.7025	0.0149409	1379.46	0.611541
0.424385	33.1691	0.01236	1357.63	0.505902
0.411115	32.6555	0.0150703	1336.61	0.616836
0.399255	32.1114	0.0137564	1314.34	0.563056
0.389014	31.662	0.0152135	1295.94	0.622694
0.378779	31.2252	0.0139722	1278.06	0.571887
0.367514	30.7712	0.0117729	1259.48	0.481869
0.356507	30.1909	0.0108573	1235.73	0.444395
0.346756	29.7318	0.0146203	1216.94	0.598417
0.336548	29.2665	0.0138549	1197.89	0.567088
0.325934	28.7838	0.011936	1178.13	0.488545
0.314806	28.2996	0.0104893	1158.32	0.429331
0.30393	27.675	0.0125608	1132.75	0.514122
0.292311	27.0415	0.0149688	1106.82	0.61268
0.280947	26.5156	0.0157287	1085.3	0.643782
0.270809	25.9749	0.0119377	1063.17	0.488617
0.258206	25.3104	0.0135616	1035.97	0.555083
0.247187	24.6165	0.01237	1007.56	0.506312
0.236983	24.0321	0.0137404	983.648	0.562402
0.227339	23.4403	0.013514	959.424	0.553135
0.218239	22.9919	0.0138723	941.069	0.5678
0.20635	22.2218	0.0132733	909.55	0.543283
0.197494	21.5811	0.0131595	883.327	0.538625
0.187625	20.9169	0.0130368	856.141	0.533604
0.176509	20.2342	0.014239	828.196	0.582808
0.164625	19.5404	0.0122277	799.798	0.500487
0.154498	18.5787	0.0146525	760.437	0.599736
0.14222	17.6162	0.0124079	721.039	0.507861
0.131132	16.8022	0.0140007	687.722	0.573057
0.121264	15.9423	0.0149888	652.526	0.6135
0.11052	15.0206	0.0171827	614.803	0.703299
0.0992711	13.8244	0.0160449	565.84	0.656727
0.088173	12.787	0.0157373	523.38	0.644137
0.0791739	11.6847	0.0188949	478.259	0.773379
0.0688118	10.4853	0.0182873	429.17	0.748509
0.0578014	8.90849	0.0191812	364.629	0.785098
0.0473025	7.53533	0.0207892	308.425	0.850913
0.0360548	6.05657	0.0206578	247.899	0.845534
0.0256637	4.49582	0.0219119	184.016	0.896866
0.0137869	2.42835	0.0218346	99.3936	0.893703
0.00369769	0.680015	0.023221	27.8334	0.950446
-3.19699e-05	-0.0966088	0.0150094	-3.95425	0.614344