File: data/monolayers/nanoparticles/Ol_CoFe_C/vsm/rescale/DD67_10K_FC1T_LangevinSAXSscaled.xye
#Executed at: 2018-11-22 19:05:25.1033
#Loaded File	 = ../rawdata/DD172_6_HYST_10K_FC_1T.DAT
#Rescale Factor	 = 0.0244316
#[[Data]]
#B/T	M/kAm-1	sM/kAm-1	M_raw/memu	sM_raw/memu
-3.34923e-05	44.4516	0.014547	1819.43	0.595415
0.040217	44.6177	0.0100331	1826.23	0.41066
0.0879057	45.274	0.0101775	1853.09	0.416569
0.134245	45.9309	0.00914209	1879.98	0.374191
0.174115	46.5222	0.00974386	1904.18	0.398821
0.214273	47.1737	0.00968839	1930.84	0.396551
0.262844	47.8062	0.0105633	1956.73	0.432361
0.313975	48.5939	0.00918055	1988.97	0.375765
0.364817	49.3109	0.00973926	2018.32	0.398633
0.411214	49.9484	0.00931009	2044.41	0.381067
0.464635	50.7242	0.00936953	2076.17	0.3835
0.517274	51.4186	0.0108326	2104.59	0.443384
0.562927	52.0502	0.010906	2130.44	0.446388
0.609613	52.7523	0.0101469	2159.18	0.415318
0.659358	53.4424	0.0110318	2187.43	0.451539
0.707518	54.0648	0.0123123	2212.9	0.503947
0.752266	54.6713	0.0106441	2237.72	0.435667
0.803485	55.4187	0.0103329	2268.32	0.42293
0.856925	56.1082	0.0115571	2296.54	0.47304
0.90826	56.7745	0.0115479	2323.81	0.472662
0.953224	57.3767	0.00928823	2348.46	0.380172
0.998958	58.0202	0.0115501	2374.8	0.472751
1.04267	58.5431	0.0100606	2396.2	0.411787
1.09191	59.2119	0.0109888	2423.57	0.449778
1.14609	59.9157	0.0111806	2452.38	0.457627
1.19759	60.5786	0.0116079	2479.51	0.475119
1.24601	61.2284	0.0130261	2506.11	0.533164
1.2903	61.832	0.0129682	2530.82	0.530794
1.33828	62.4815	0.0116176	2557.4	0.475516
1.38702	63.064	0.0112959	2581.24	0.462349
1.43401	63.7291	0.0120195	2608.46	0.491964
1.48294	64.3328	0.0128197	2633.17	0.524718
1.52918	64.9921	0.0132626	2660.16	0.542844
1.57714	65.6419	0.0120587	2686.76	0.493568
1.62238	66.173	0.0133432	2708.49	0.546145
1.66886	66.843	0.00939261	2735.92	0.384444
1.71758	67.5146	0.0128737	2763.41	0.526925
1.76353	68.1075	0.0101149	2787.67	0.414008
1.80983	68.7143	0.0131152	2812.51	0.536814
1.85827	69.3944	0.0149347	2840.35	0.611284
1.90872	70.0557	0.0143296	2867.42	0.586519
1.95443	70.6605	0.0152445	2892.17	0.623967
1.9987	71.2667	0.0119554	2916.98	0.489342
2.04839	71.9444	0.0147556	2944.72	0.603954
2.09508	72.5715	0.0142574	2970.39	0.583564
2.14034	73.1811	0.0141481	2995.34	0.57909
2.19254	73.9263	0.0135416	3025.84	0.554266
2.23855	74.532	0.015144	3050.63	0.619852
2.28351	75.1617	0.012857	3076.41	0.526243
2.32751	75.7675	0.0153511	3101.2	0.628329
2.37297	76.3954	0.0145002	3126.9	0.593502
2.41294	76.9384	0.0153539	3149.13	0.628442
2.4617	77.6271	0.0174422	3177.32	0.713919
2.50119	78.1251	0.013156	3197.7	0.538483
2.54261	78.7346	0.0172286	3222.65	0.705175
2.58385	79.3127	0.0168776	3246.31	0.690809
2.62758	79.9274	0.015993	3271.47	0.654604
2.66504	80.4164	0.0186748	3291.49	0.764371
2.71083	81.0366	0.0144604	3316.87	0.591872
2.75084	81.6146	0.0166477	3340.53	0.681398
2.79305	82.2322	0.0172109	3365.81	0.704452
2.8363	82.8017	0.0169169	3389.12	0.692417
2.87729	83.4212	0.0143974	3414.47	0.589292
2.92297	84.0627	0.014252	3440.73	0.583342
2.96797	84.6646	0.0183812	3465.36	0.752352
3.01071	85.2489	0.0167658	3489.28	0.686234
3.05317	85.8761	0.0185706	3514.95	0.760106
3.09589	86.4398	0.0134269	3538.03	0.549569
3.13816	87.0712	0.021148	3563.87	0.865599
3.17832	87.6288	0.0142484	3586.69	0.583195
3.21986	88.1834	0.0201372	3609.39	0.824228
3.26331	88.8208	0.0165506	3635.48	0.677423
3.30656	89.4636	0.0168481	3661.79	0.6896
3.34902	90.019	0.0180699	3684.52	0.739611
3.39172	90.6679	0.0162075	3711.08	0.663383
3.43126	91.2208	0.0201462	3733.72	0.824592
3.47617	91.8017	0.0213106	3757.49	0.872255
3.51793	92.4027	0.0141675	3782.09	0.579885
3.55513	92.9706	0.0219799	3805.33	0.899651
3.60263	93.6031	0.0161558	3831.22	0.661266
3.64287	94.1517	0.0193125	3853.68	0.790471
3.68459	94.7985	0.018199	3880.15	0.744896
3.7283	95.3358	0.0228282	3902.15	0.934371
3.77078	95.9637	0.0186774	3927.84	0.764476
3.81224	96.4773	0.0221799	3948.86	0.907834
3.85969	97.1608	0.0139652	3976.84	0.571602
3.89645	97.7044	0.0232573	3999.09	0.951932
3.93743	98.2846	0.0196618	4022.84	0.804768
3.97768	98.8085	0.020755	4044.28	0.849511
4.01768	99.3721	0.0203425	4067.35	0.83263
4.05768	99.9063	0.0220445	4089.22	0.902294
4.09742	100.435	0.0228489	4110.85	0.935218
4.14335	101.057	0.0176075	4136.32	0.720684
4.17733	101.539	0.0171603	4156.04	0.702379
4.22129	102.157	0.020577	4181.34	0.842229
4.25557	102.691	0.0222624	4203.22	0.911211
4.29702	103.16	0.0197401	4222.41	0.807974
4.3355	103.707	0.0201974	4244.78	0.826692
4.37895	104.324	0.0219512	4270.03	0.898473
4.41943	104.83	0.016132	4290.76	0.66029
4.46147	105.402	0.020445	4314.15	0.836824
4.50147	105.895	0.0161455	4334.34	0.660843
4.54395	106.429	0.019093	4356.18	0.781485
4.58239	106.963	0.0219599	4378.07	0.898831
4.62388	107.463	0.0234905	4398.51	0.961479
4.66663	108.074	0.0183577	4423.51	0.751392
4.70633	108.574	0.0182087	4444.01	0.745292
4.7478	109.098	0.0194439	4465.46	0.795847
4.78852	109.592	0.0183514	4485.64	0.751131
4.82777	110.102	0.0179904	4506.53	0.736355
4.875	110.781	0.021426	4534.3	0.876976
4.91599	111.291	0.0203724	4555.22	0.833854
4.95724	111.765	0.0203208	4574.61	0.831742
4.99972	112.309	0.017202	4596.87	0.704088
5.04069	112.836	0.0258447	4618.43	1.05784
5.08291	113.318	0.0219528	4638.18	0.898539
5.12439	113.887	0.0200327	4661.43	0.819949
5.17161	114.424	0.0181402	4683.42	0.742489
5.22133	115.059	0.023906	4709.43	0.978485
5.26331	115.588	0.0211413	4731.09	0.865325
5.3098	116.127	0.0224956	4753.16	0.920755
5.35374	116.697	0.0290425	4776.46	1.18873
5.39976	117.237	0.0221522	4798.57	0.9067
5.44947	117.796	0.0163615	4821.46	0.669683
5.49644	118.334	0.0295554	4843.48	1.20972
5.53767	118.818	0.0193921	4863.29	0.793728
5.58638	119.375	0.0274024	4886.1	1.1216
5.63588	119.973	0.0291683	4910.54	1.19387
5.682325	120.501	0.0214974	4932.18	0.879899
5.7308	121.04	0.0261493	4954.23	1.0703
5.77304	121.567	0.0199027	4975.81	0.814628
5.82153	122.051	0.0223029	4995.61	0.912868
5.8638	122.585	0.0197443	5017.46	0.808145
5.9085	123.093	0.0211415	5038.25	0.865331
5.95347	123.562	0.0291171	5057.44	1.19178
5.99946	124.072	0.0158424	5078.33	0.648437
6.04592	124.582	0.021635	5099.19	0.885531
6.08764	125.014	0.0237631	5116.9	0.972638
6.13662	125.585	0.026959	5140.27	1.10344
6.18009	125.979	0.0226391	5156.39	0.926628
6.23057	126.516	0.0215652	5178.37	0.882676
6.28112	127.017	0.0208388	5198.86	0.852942
6.32884	127.531	0.0214283	5219.93	0.877072
6.37681	128.06	0.0240615	5241.54	0.984851
6.42403	128.477	0.0128674	5258.63	0.526669
6.467	128.892	0.0265524	5275.61	1.0868
6.51373	129.422	0.0276021	5297.32	1.12977
6.56645	129.959	0.0253366	5319.27	1.03704
6.61044	130.323	0.0199532	5334.19	0.816696
6.65564	130.832	0.0207999	5355.04	0.851349
6.69916	131.244	0.0224844	5371.9	0.920296
6.74541	131.695	0.0268864	5390.35	1.10048
6.79061	132.086	0.0253743	5406.34	1.03858
6.83935	132.63	0.0224151	5428.62	0.917461
6.88807	133.112	0.0291328	5448.35	1.19242
6.92927	133.477	0.0253238	5463.3	1.03651
6.97777	133.877	0.0282865	5479.64	1.15778
7.02546	134.277	0.0204793	5496.04	0.838227
7.06771	134.762	0.0339299	5515.86	1.38877
7.11743	135.163	0.0282343	5532.3	1.15565
7.16666	135.657	0.0270088	5552.49	1.10548
7.21065	136.031	0.026672	5567.8	1.0917
7.25986	136.411	0.0206222	5583.39	0.844076
7.30561	136.803	0.0283713	5599.43	1.16125
7.35183	137.343	0.0225792	5621.52	0.924177
7.3993	137.655	0.0275128	5634.3	1.12611
7.44455	138.034	0.0248726	5649.82	1.01805
7.49325	138.505	0.0303464	5669.07	1.24209
7.53923	138.862	0.0310525	5683.69	1.27099
7.58651	139.251	0.0247111	5699.63	1.01144
7.63348	139.65	0.0311255	5715.94	1.27398
7.68074	140.048	0.0303751	5732.23	1.24327
7.72543	140.462	0.0310597	5749.2	1.27129
7.77443	140.882	0.0236013	5766.36	0.966014
7.82439	141.298	0.0284328	5783.39	1.16377
7.87062	141.629	0.0282195	5796.94	1.15504
7.92007	141.974	0.0260244	5811.06	1.06519
7.96758	142.359	0.0298164	5826.82	1.2204
8.01432	142.737	0.0253519	5842.28	1.03767
8.06511	143.145	0.0240117	5859.01	0.982811
8.11209	143.48	0.0251773	5872.7	1.03052
8.15629	143.862	0.0259374	5888.35	1.06163
8.20829	144.247	0.0253277	5904.1	1.03668
8.25601	144.635	0.0313444	5919.99	1.28294
8.29999	144.906	0.0308532	5931.09	1.26284
8.34871	145.322	0.0309854	5948.12	1.26825
8.39018	145.623	0.0256228	5960.43	1.04876
8.43742	145.989	0.0294483	5975.42	1.20533
8.47718	146.282	0.0333823	5987.39	1.36636
8.51916	146.609	0.0246643	6000.76	1.00952
8.55966	146.824	0.0281728	6009.57	1.15313
8.60362	147.18	0.0323701	6024.16	1.32493
8.64687	147.536	0.0268026	6038.74	1.09704
8.69159	147.765	0.0320278	6048.1	1.31092
8.73657	148.121	0.021193	6062.67	0.867442
8.77878	148.389	0.0321512	6073.65	1.31596
8.82302	148.778	0.0275365	6089.55	1.12708
8.86925	148.992	0.0279293	6098.33	1.14316
8.909	149.339	0.0306152	6112.53	1.2531
8.95246	149.653	0.0310149	6125.38	1.26946
8.99689	149.889	0.0282803	6135.03	1.15753
8.97654	149.995	0.0290145	6139.38	1.18758
8.93667	149.74	0.0284583	6128.95	1.16481
8.89272	149.535	0.0281797	6120.54	1.15341
8.8485	149.292	0.0275953	6110.58	1.12949
8.80631	149.109	0.0284482	6103.1	1.1644
8.76105	148.784	0.0266338	6089.82	1.09014
8.71805	148.601	0.0280486	6082.32	1.14804
8.66835	148.314	0.0245513	6070.56	1.0049
8.62339	148.016	0.0240601	6058.36	0.984794
8.5759	147.819	0.0304946	6050.29	1.24816
8.52965	147.531	0.0228725	6038.5	0.936181
8.48715	147.297	0.0202112	6028.94	0.827256
8.44118	147.044	0.0239043	6018.58	0.978417
8.39266	146.757	0.0312605	6006.83	1.27951
8.34914	146.465	0.0263268	5994.89	1.07757
8.30449	146.203	0.0217841	5984.17	0.891636
8.25922	145.903	0.026978	5971.9	1.10422
8.21075	145.623	0.0313657	5960.42	1.28382
8.16201	145.295	0.0258473	5946.98	1.05794
8.11404	144.98	0.0238711	5934.11	0.977057
8.06529	144.698	0.0290439	5922.55	1.18878
8.02077	144.382	0.022473	5909.64	0.919833
7.97025	144.125	0.032131	5899.1	1.31514
7.92128	143.843	0.0254588	5887.58	1.04204
7.87731	143.483	0.0287929	5872.82	1.17851
7.83107	143.204	0.0249803	5861.42	1.02246
7.78258	142.874	0.0256416	5847.9	1.04953
7.73285	142.546	0.0295724	5834.48	1.21041
7.68888	142.293	0.0218885	5824.14	0.895909
7.64241	142.007	0.0254373	5812.43	1.04116
7.59343	141.678	0.0274393	5798.97	1.1231
7.54616	141.313	0.0266037	5784.03	1.0889
7.49891	141.006	0.0279112	5771.45	1.14242
7.44745	140.693	0.0279593	5758.64	1.14439
7.40118	140.365	0.025496	5745.21	1.04356
7.3562	140.091	0.028726	5733.99	1.17577
7.31227	139.819	0.0187623	5722.87	0.767952
7.26449	139.448	0.0297543	5707.67	1.21786
7.21727	139.104	0.0262068	5693.6	1.07266
7.17155	138.83	0.025469	5682.39	1.04246
7.12531	138.483	0.0223332	5668.16	0.914108
7.08059	138.181	0.0191105	5655.82	0.782201
7.03558	137.863	0.0224444	5642.79	0.918661
6.98588	137.484	0.0222555	5627.3	0.910928
6.941675	137.166	0.0266013	5614.29	1.0888
6.89566	136.878	0.0239299	5602.5	0.979463
6.84838	136.461	0.0211566	5585.42	0.865949
6.80244	136.139	0.0353318	5572.25	1.44615
6.75422	135.795	0.0249142	5558.14	1.01975
6.70748	135.443	0.0203984	5543.75	0.834919
6.66201	135.091	0.0236251	5529.34	0.966987
6.61626	134.804	0.0172419	5517.59	0.705718
6.56727	134.395	0.0197321	5500.85	0.807643
6.51957	134.012	0.0261557	5485.2	1.07057
6.47307	133.696	0.0194346	5472.26	0.795468
6.42114	133.268	0.0208182	5454.73	0.8521
6.37512	132.862	0.0231514	5438.11	0.947597
6.33191	132.549	0.0229772	5425.3	0.940468
6.28719	132.21	0.0250592	5411.44	1.02569
6.24113	131.84	0.0189337	5396.3	0.774966
6.1889	131.42	0.0231279	5379.07	0.946637
6.14191	131.048	0.0165351	5363.85	0.676788
6.09445	130.645	0.0173924	5347.38	0.71188
6.04772	130.249	0.0230311	5331.14	0.942673
5.99625	129.857	0.0251416	5315.13	1.02906
5.94652	129.475	0.0203109	5299.47	0.831337
5.90106	129.007	0.0282548	5280.32	1.15648
5.85559	128.661	0.0218698	5266.15	0.895141
5.80411	128.241	0.0230828	5248.98	0.944791
5.75631	127.856	0.0202128	5233.2	0.82732
5.70185	127.381	0.024247	5213.77	0.992442
5.65788	126.959	0.0223248	5196.51	0.913765
5.60764	126.545	0.0164796	5179.56	0.674519
5.56792	126.166	0.0236742	5164.04	0.968999
5.51873	125.753	0.0186381	5147.13	0.762868
5.46999	125.283	0.0231863	5127.91	0.949028
5.42206	124.873	0.0156703	5111.1	0.641395
5.37027	124.385	0.021996	5091.14	0.900307
5.32705	124.012	0.0261843	5075.89	1.07174
5.28105	123.585	0.018671	5058.39	0.764214
5.23411	123.107	0.020064	5038.85	0.821231
5.18485	122.631	0.0162383	5019.37	0.66464
5.13713	122.242	0.028791	5003.42	1.17843
5.08843	121.747	0.024388	4983.17	0.998215
5.04249	121.295	0.0256965	4964.66	1.05177
4.99625	120.803	0.0251506	4944.54	1.02943
4.94725	120.412	0.0198587	4928.54	0.812826
4.90581	119.978	0.0202383	4910.76	0.828363
4.8563	119.469	0.0194788	4889.92	0.797276
4.80978	119.004	0.0184676	4870.9	0.755886
4.76186	118.56	0.0229309	4852.72	0.938572
4.71635	118.138	0.0233803	4835.43	0.956968
4.6679	117.613	0.0176074	4813.96	0.720681
4.6284	117.205	0.022374	4797.28	0.915779
4.58671	116.753	0.0184068	4778.75	0.753401
4.53871	116.3	0.0222745	4760.22	0.911706
4.4955	115.817	0.0219383	4740.45	0.897944
4.44471	115.286	0.0219436	4718.73	0.898163
4.40147	114.81	0.0207112	4699.24	0.847718
4.35174	114.327	0.0206562	4679.48	0.845469
4.30254	113.791	0.0239027	4657.52	0.97835
4.2563	113.265	0.0217583	4636.01	0.890577
4.21212	112.79	0.0206732	4616.55	0.846164
4.16887	112.315	0.019005	4597.11	0.777885
4.12389	111.814	0.0228341	4576.61	0.934611
4.07994	111.324	0.0209278	4556.53	0.856585
4.0372	110.823	0.0181119	4536.05	0.741331
3.99016	110.269	0.026885	4513.37	1.10042
3.94045	109.728	0.0190329	4491.23	0.779026
3.89376	109.215	0.0191165	4470.22	0.782448
3.84201	108.614	0.0208839	4445.62	0.854787
3.79253	108.069	0.0228004	4423.33	0.93323
3.75182	107.527	0.0163616	4401.15	0.669691
3.6996	106.927	0.0195955	4376.58	0.802052
3.65741	106.408	0.0219595	4355.32	0.898815
3.6094	105.841	0.021079	4332.14	0.862775
3.56366	105.318	0.017198	4310.73	0.703924
3.51796	104.771	0.0190803	4288.32	0.780967
3.4685	104.151	0.0204359	4262.96	0.836454
3.42477	103.596	0.0199325	4240.24	0.815847
3.38229	103.088	0.018741	4219.46	0.767077
3.33906	102.521	0.0190522	4196.26	0.779816
3.29409	101.97	0.0176955	4173.68	0.724288
3.24811	101.387	0.0152216	4149.83	0.623029
3.19842	100.717	0.0176146	4122.38	0.720976
3.15191	100.12	0.0178405	4097.97	0.73022
3.10695	99.5193	0.0151864	4073.38	0.621586
3.06018	98.9396	0.0149599	4049.65	0.612316
3.01348	98.3175	0.0145436	4024.18	0.595275
2.96426	97.6649	0.0170096	3997.48	0.696211
2.92105	97.0744	0.0157522	3973.31	0.644748
2.87131	96.4056	0.0175288	3945.93	0.717463
2.8241	95.7924	0.0153824	3920.83	0.629608
2.77612	95.1156	0.0126784	3893.13	0.518935
2.72892	94.5009	0.0153962	3867.97	0.630173
2.68119	93.8164	0.0184528	3839.95	0.755283
2.62965	93.093	0.0174025	3810.34	0.712293
2.58394	92.4733	0.0151625	3784.98	0.620609
2.53646	91.7859	0.0150439	3756.85	0.615754
2.48651	91.0671	0.0148424	3727.42	0.607509
2.44227	90.4093	0.0188458	3700.5	0.771368
2.39504	89.7663	0.0154019	3674.18	0.630408
2.3483	89.0504	0.0170296	3644.88	0.69703
2.30086	88.3985	0.0126929	3618.2	0.519527
2.25287	87.6502	0.0168319	3587.57	0.688937
2.20938	87.0683	0.0140959	3563.75	0.576954
2.16014	86.251	0.0182113	3530.3	0.745398
2.11066	85.5651	0.0142641	3502.22	0.583837
2.06222	84.8185	0.0138176	3471.66	0.565562
2.01548	84.1485	0.0113271	3444.24	0.463624
1.96954	83.4454	0.0132911	3415.46	0.54401
1.9233	82.6918	0.0170293	3384.62	0.697017
1.87533	82.0035	0.0135252	3356.45	0.553592
1.8346	81.3117	0.0124233	3328.13	0.508491
1.78738	80.6211	0.0111581	3299.86	0.456707
1.7429	79.9014	0.0121959	3270.41	0.499183
1.6987	79.2129	0.0133787	3242.23	0.547596
1.6572	78.57	0.0153455	3215.91	0.628099
1.6095	77.8568	0.013897	3186.72	0.568813
1.56548	77.1664	0.0108025	3158.46	0.44215
1.5188	76.3548	0.0111099	3125.24	0.454732
1.46982	75.6232	0.0134447	3095.3	0.5503
1.42558	74.9126	0.0121983	3066.21	0.499281
1.37811	74.0867	0.0135453	3032.41	0.554416
1.33139	73.3644	0.0124038	3002.84	0.507692
1.28938	72.6363	0.0144651	2973.04	0.592065
1.24166	71.8915	0.0118132	2942.56	0.483519
1.1942	71.07	0.0113994	2908.93	0.466584
1.15348	70.4086	0.0124454	2881.86	0.509398
1.10173	69.5803	0.011384	2847.96	0.465954
1.06276	68.9181	0.0107635	2820.85	0.440556
1.0133	68.1003	0.0133183	2787.38	0.545123
0.968839	67.338	0.0125317	2756.18	0.51293
0.927867	66.6671	0.0112423	2728.72	0.460153
0.882577	65.9167	0.0119502	2698	0.48913
0.843827	65.1435	0.0106609	2666.36	0.436355
0.794866	64.3888	0.010437	2635.47	0.427194
0.751655	63.6153	0.011276	2603.81	0.461533
0.705907	62.8462	0.0103694	2572.33	0.424427
0.664697	62.1567	0.010601	2544.11	0.433906
0.619212	61.3843	0.00870025	2512.49	0.356106
0.573516	60.6004	0.010978	2480.4	0.449334
0.531768	59.891	0.0102736	2451.37	0.420502
0.483567	59.0304	0.0102111	2416.14	0.417946
0.442534	58.3125	0.00923108	2386.76	0.377833
0.393788	57.4189	0.00915203	2350.19	0.374597
0.34956	56.6129	0.0112629	2317.2	0.460997
0.3056	55.8049	0.0108189	2284.12	0.442822
0.259854	54.9788	0.0106297	2250.31	0.435078
0.214866	54.148	0.0106137	2216.31	0.434426
0.170133	53.3218	0.0101115	2182.49	0.41387
0.124876	52.494	0.0100084	2148.61	0.409648
0.0756376	51.54	0.0108665	2109.56	0.444772
0.0338962	50.7724	0.00991013	2078.14	0.405627
-0.00679982	49.995	0.00952059	2046.32	0.389683
-0.053772	49.1114	0.011138	2010.15	0.455885
-0.0971678	48.2257	0.0105895	1973.9	0.433434
-0.145485	47.2363	0.011186	1933.41	0.457847
-0.188896	46.4436	0.00884179	1900.96	0.361899
-0.233005	45.4408	0.00982173	1859.92	0.402009
-0.27643	44.6315	0.010523	1826.79	0.430713
-0.32116	43.7063	0.010481	1788.92	0.428991
-0.366936	42.7833	0.00847574	1751.14	0.346916
-0.40846	41.8383	0.0101349	1712.46	0.414825
-0.450994	40.9836	0.0107858	1677.48	0.441469
-0.496255	40.0295	0.00867973	1638.43	0.355266
-0.54323	38.9474	0.0100317	1594.14	0.410602
-0.591699	37.8631	0.010279	1549.76	0.420723
-0.635206	36.9679	0.00887282	1513.11	0.363169
-0.681659	35.9684	0.0101092	1472.2	0.413774
-0.728649	34.8472	0.010123	1426.31	0.41434
-0.778632	33.6976	0.00983876	1379.26	0.402706
-0.826107	32.6406	0.00988223	1336	0.404485
-0.87208	31.4647	0.0117015	1287.86	0.478947
-0.919891	30.3784	0.0112286	1243.4	0.459592
-0.972353	29.04	0.0109996	1188.62	0.450219
-1.01905	27.9158	0.0103372	1142.61	0.423106
-1.06353	26.7799	0.0108176	1096.11	0.44277
-1.10902	25.6359	0.0105097	1049.29	0.430167
-1.157	24.3387	0.0112562	996.195	0.460724
-1.20448	23.1491	0.0108753	947.506	0.445134
-1.25117	21.9398	0.010698	898.007	0.437873
-1.29567	20.6982	0.011944	847.187	0.488873
-1.34118	19.3175	0.011409	790.676	0.466975
-1.38815	18.0475	0.0118353	738.695	0.484426
-1.43215	16.7548	0.013671	685.784	0.559563
-1.47886	15.4417	0.0126782	632.037	0.518924
-1.52458	14.1134	0.0122763	577.67	0.502475
-1.57577	12.5811	0.0129688	514.951	0.530819
-1.62602	10.8802	0.0110492	445.333	0.452249
-1.67475	9.47081	0.0112707	387.645	0.461315
-1.72196	7.86501	0.013472	321.919	0.551418
-1.76743	6.40306	0.0125074	262.08	0.511936
-1.81491	4.91004	0.014038	200.97	0.574582
-1.86239	3.22882	0.0143688	132.157	0.588122
-1.9096	1.68628	0.0140919	69.0203	0.576791
-1.95681	-0.0595727	0.0118277	-2.43834	0.484116
-2.00107	-1.65563	0.0141877	-67.7659	0.580711
-2.049775	-3.26868	0.0122518	-133.789	0.501474
-2.09499	-5.11318	0.0139665	-209.285	0.571654
-2.14047	-6.5887	0.0121783	-269.679	0.498463
-2.18493	-8.28406	0.0142266	-339.071	0.582304
-2.22766	-9.98667	0.0148513	-408.76	0.607873
-2.2769	-11.9057	0.0122223	-487.307	0.500267
-2.32987	-13.8594	0.0150765	-567.273	0.617089
-2.37608	-15.839	0.014412	-648.298	0.589892
-2.42231	-17.6185	0.01567	-721.135	0.641381
-2.46827	-19.4072	0.0165826	-794.346	0.678735
-2.51427	-21.2379	0.0146471	-869.278	0.599513
-2.56148	-23.2682	0.0148624	-952.377	0.608325
-2.606425	-25.1133	0.0205915	-1027.9	0.842821
-2.65591	-27.1575	0.0185404	-1111.57	0.758868
-2.70295	-29.0339	0.0126671	-1188.37	0.51847
-2.74892	-30.8971	0.0157801	-1264.64	0.645887
-2.79889	-32.9571	0.0181104	-1348.95	0.741268
-2.84911	-35.0488	0.016579	-1434.57	0.678586
-2.89556	-37.1458	0.0149295	-1520.4	0.611071
-2.94004	-38.9995	0.0191563	-1596.27	0.784078
-2.98602	-40.8801	0.0150366	-1673.25	0.615458
-3.03347	-42.7536	0.0196028	-1749.93	0.802352
-3.07893	-44.7731	0.0201962	-1832.58	0.826641
-3.12544	-46.6282	0.0161142	-1908.52	0.659561
-3.17542	-48.6883	0.0217093	-1992.84	0.888574
-3.2199	-50.4911	0.0197556	-2066.63	0.808608
-3.27285	-52.5008	0.0136043	-2148.89	0.55683
-3.32009	-54.5085	0.0160702	-2231.06	0.657762
-3.36977	-56.4656	0.0227632	-2311.17	0.93171
-3.41876	-58.2241	0.0211171	-2383.14	0.864332
-3.46295	-59.975	0.0213415	-2454.81	0.873519
-3.50893	-61.6877	0.0198727	-2524.91	0.813401
-3.56014	-63.7276	0.0198168	-2608.4	0.81111
-3.60513	-65.3988	0.016511	-2676.81	0.675804
-3.65287	-67.0749	0.0227301	-2745.41	0.930354
-3.6993	-68.8766	0.0172435	-2819.16	0.705787
-3.74031	-70.3001	0.0226183	-2877.42	0.925779
-3.78478	-71.7531	0.0181812	-2936.89	0.744166
-3.83073	-73.4392	0.0221347	-3005.9	0.905985
-3.87472	-74.9972	0.021181	-3069.67	0.866948
-3.91667	-76.3358	0.016293	-3124.46	0.666879
-3.96217	-77.8232	0.0238733	-3185.34	0.977148
-4.0029	-79.1167	0.0192221	-3238.29	0.78677
-4.04788	-80.5735	0.0202007	-3297.92	0.826824
-4.09188	-82.0155	0.0212271	-3356.94	0.868834
-4.13832	-83.5761	0.0175419	-3420.81	0.718
-4.1918	-85.1017	0.0194442	-3483.26	0.795863
-4.24127	-86.5853	0.0203622	-3543.98	0.833433
-4.28375	-87.9319	0.0231498	-3599.1	0.947535
-4.32946	-89.2151	0.0237642	-3651.62	0.972681
-4.37369	-90.3289	0.0217504	-3697.21	0.890255
-4.4219	-91.7318	0.0179829	-3754.63	0.736051
-4.46319	-92.945	0.020987	-3804.29	0.85901
-4.50493	-94.0199	0.0178261	-3848.28	0.729632
-4.55117	-95.2174	0.0219122	-3897.3	0.896878
-4.59587	-96.384	0.0223226	-3945.05	0.913676
-4.64261	-97.5303	0.0238867	-3991.97	0.977695
-4.68531	-98.6229	0.0217444	-4036.69	0.890008
-4.73403	-99.8566	0.0209344	-4087.18	0.856856
-4.77626	-100.825	0.0237462	-4126.83	0.971944
-4.82245	-101.906	0.0157957	-4171.07	0.646526
-4.87168	-103.145	0.0248823	-4221.76	1.01844
-4.9157	-104.053	0.0212209	-4258.95	0.868583
-4.9622	-105.154	0.0195893	-4304.03	0.801799
-5.00416	-106.023	0.0242742	-4339.58	0.993554
-5.05187	-107.116	0.0261425	-4384.33	1.07002
-5.09884	-108.029	0.0243329	-4421.67	0.995958
-5.14303	-108.972	0.0226589	-4460.26	0.927443
-5.19252	-109.959	0.0254936	-4500.66	1.04347
-5.23822	-110.846	0.0246439	-4536.98	1.00869
-5.28467	-111.72	0.0187137	-4572.76	0.765963
-5.33391	-112.679	0.0293194	-4611.99	1.20006
-5.37967	-113.519	0.0187716	-4646.38	0.768333
-5.42861	-114.429	0.019951	-4683.65	0.816606
-5.47687	-115.355	0.0257683	-4721.55	1.05471
-5.52832	-116.227	0.0232735	-4757.22	0.952598
-5.57603	-116.995	0.0207001	-4788.68	0.847266
-5.62751	-117.925	0.0307021	-4826.74	1.25665
-5.67573	-118.766	0.0229169	-4861.14	0.937999
-5.72018	-119.409	0.0215546	-4887.48	0.882239
-5.77466	-120.322	0.0261115	-4924.83	1.06876
-5.82163	-121.107	0.0242729	-4956.98	0.993502
-5.86787	-121.808	0.0269708	-4985.68	1.10393
-5.91708	-122.547	0.0280609	-5015.91	1.14855
-5.96207	-123.225	0.0322887	-5043.66	1.32159
-6.01053	-123.886	0.0280575	-5070.74	1.14841
-6.0575	-124.601	0.0227619	-5099.97	0.931655
-6.10447	-125.231	0.0274062	-5125.79	1.12175
-6.15743	-126.04	0.0191048	-5158.86	0.78197
-6.20916	-126.704	0.0267167	-5186.06	1.09353
-6.25369	-127.33	0.0243621	-5211.67	0.997154
-6.30117	-127.987	0.0293983	-5238.56	1.20329
-6.34915	-128.551	0.0225466	-5261.65	0.922845
-6.39909	-129.221	0.0243383	-5289.1	0.996179
-6.44307	-129.768	0.0163069	-5311.49	0.667451
-6.49329	-130.397	0.0225255	-5337.23	0.921979
-6.54751	-131.046	0.0263404	-5363.78	1.07813
-6.5932	-131.625	0.0245572	-5387.47	1.00514
-6.64267	-132.201	0.0253627	-5411.05	1.03811
-6.69444	-132.862	0.0259706	-5438.1	1.06299
-6.74292	-133.403	0.0229445	-5460.24	0.939128
-6.7884	-133.874	0.023931	-5479.53	0.979509
-6.83883	-134.528	0.0238177	-5506.29	0.974869
-6.88281	-134.913	0.0297486	-5522.07	1.21762
-6.93199	-135.487	0.0220016	-5545.56	0.900536
-6.97674	-135.97	0.024875	-5565.33	1.01815
-7.0257	-136.481	0.0299273	-5586.24	1.22494
-7.07215	-136.944	0.0295495	-5605.18	1.20948
-7.11614	-137.438	0.0305904	-5625.41	1.25208
-7.16712	-137.961	0.0209133	-5646.82	0.855994
-7.21933	-138.526	0.0208321	-5669.94	0.852667
-7.27125	-139.016	0.0164487	-5690	0.673255
-7.318	-139.454	0.0298756	-5707.94	1.22282
-7.36197	-139.891	0.0234174	-5725.8	0.958488
-7.4122	-140.324	0.0185088	-5743.55	0.757574
-7.46616	-140.893	0.0240964	-5766.82	0.986278
-7.50715	-141.232	0.0319899	-5780.7	1.30936
-7.55685	-141.686	0.0269737	-5799.3	1.10405
-7.60311	-142.102	0.0312438	-5816.31	1.27882
-7.64759	-142.526	0.0287139	-5833.65	1.17527
-7.6958	-142.979	0.0296348	-5852.19	1.21297
-7.737	-143.264	0.032952	-5863.88	1.34874
-7.7845	-143.715	0.030956	-5882.33	1.26705
-7.83197	-144.117	0.0264106	-5898.8	1.081
-7.88041	-144.54	0.0272046	-5916.09	1.1135
-7.93062	-144.96	0.0253616	-5933.3	1.03806
-7.97562	-145.342	0.0309801	-5948.92	1.26803
-8.02511	-145.728	0.0303846	-5964.7	1.24366
-8.06912	-146.125	0.0292362	-5980.97	1.19665
-8.11835	-146.485	0.0240829	-5995.7	0.985727
-8.17102	-146.885	0.0255394	-6012.06	1.04534
-8.21724	-147.286	0.0274759	-6028.48	1.1246
-8.25972	-147.633	0.0253457	-6042.7	1.03741
-8.31242	-147.988	0.0246604	-6057.22	1.00936
-8.36364	-148.409	0.0275812	-6074.46	1.12891
-8.41085	-148.725	0.0286848	-6087.41	1.17408
-8.45805	-149.137	0.0262865	-6104.25	1.07592
-8.504325	-149.472	0.0334558	-6117.95	1.36936
-8.54332	-149.717	0.0242234	-6128	0.991476
-8.58502	-150.039	0.0278009	-6141.16	1.1379
-8.63073	-150.337	0.0302183	-6153.37	1.23685
-8.67547	-150.65	0.0304586	-6166.18	1.24669
-8.7194	-151.005	0.0277048	-6180.71	1.13397
-8.76786	-151.334	0.024575	-6194.19	1.00587
-8.81632	-151.663	0.0216479	-6207.63	0.886059
-8.85778	-151.949	0.0326201	-6219.35	1.33516
-8.90653	-152.314	0.0248647	-6234.27	1.01773
-8.94851	-152.558	0.0249601	-6244.29	1.02163
-8.99522	-152.885	0.0243912	-6257.67	0.998343
-8.97478	-152.913	0.0232915	-6258.83	0.953331
-8.93341	-152.698	0.0299429	-6250.01	1.22558
-8.88874	-152.498	0.0305318	-6241.82	1.24968
-8.84403	-152.24	0.0262184	-6231.26	1.07313
-8.80585	-152.037	0.0262964	-6222.95	1.07633
-8.75312	-151.76	0.0281989	-6211.63	1.1542
-8.70941	-151.548	0.0296014	-6202.96	1.2116
-8.66422	-151.258	0.0273084	-6191.08	1.11775
-8.61968	-151.042	0.0264374	-6182.21	1.0821
-8.57101	-150.837	0.0321654	-6173.83	1.31655
-8.52527	-150.568	0.0242231	-6162.82	0.991462
-8.47859	-150.273	0.0281273	-6150.76	1.15126
-8.43256	-150.01	0.0292101	-6140	1.19558
-8.38783	-149.777	0.0273553	-6130.45	1.11967
-8.33793	-149.503	0.0292005	-6119.25	1.19519
-8.2904	-149.207	0.0266836	-6107.13	1.09217
-8.23997	-148.944	0.0307481	-6096.37	1.25854
-8.19175	-148.707	0.0228974	-6086.64	0.937203
-8.13827	-148.317	0.0233479	-6070.68	0.955641
-8.09129	-148.052	0.029435	-6059.86	1.20479
-8.04334	-147.749	0.0272863	-6047.46	1.11684
-7.9968	-147.539	0.0240106	-6038.86	0.982766
-7.9536	-147.25	0.0327622	-6027.03	1.34097
-7.91111	-147.005	0.0284135	-6016.98	1.16298
-7.86416	-146.696	0.0230277	-6004.34	0.942536
-7.81743	-146.44	0.0357203	-5993.88	1.46205
-7.77022	-146.169	0.0286693	-5982.79	1.17345
-7.72473	-145.863	0.029922	-5970.24	1.22472
-7.67976	-145.594	0.0217212	-5959.23	0.88906
-7.63306	-145.309	0.0255755	-5947.59	1.04682
-7.58207	-144.998	0.026128	-5934.84	1.06943
-7.53059	-144.651	0.0325219	-5920.64	1.33114
-7.48509	-144.316	0.0310799	-5906.93	1.27212
-7.44287	-144.114	0.0272566	-5898.66	1.11563
-7.398675	-143.811	0.0253373	-5886.24	1.03707
-7.351725	-143.531	0.0243448	-5874.82	0.996446
-7.30271	-143.22	0.0256895	-5862.05	1.05148
-7.25848	-142.898	0.0274418	-5848.89	1.12321
-7.2128	-142.622	0.0265007	-5837.57	1.08469
-7.16405	-142.248	0.0224187	-5822.29	0.917607
-7.11534	-141.926	0.0228545	-5809.1	0.935447
-7.07036	-141.632	0.0280843	-5797.08	1.1495
-7.02444	-141.312	0.0268793	-5783.98	1.10018
-6.97618	-141.032	0.0328311	-5772.51	1.34379
-6.93221	-140.706	0.0227281	-5759.16	0.930274
-6.88176	-140.347	0.0300215	-5744.49	1.22879
-6.83157	-139.97	0.0261354	-5729.05	1.06974
-6.78558	-139.639	0.0237062	-5715.51	0.970305
-6.73565	-139.292	0.0264347	-5701.28	1.08199
-6.68409	-138.955	0.0323512	-5687.5	1.32415
-6.63811	-138.629	0.0299257	-5674.16	1.22488
-6.5894	-138.272	0.0277032	-5659.54	1.1339
-6.5437	-137.948	0.0234335	-5646.29	0.959146
-6.49419	-137.59	0.0233911	-5631.63	0.957411
-6.44576	-137.182	0.0213526	-5614.94	0.873972
-6.39684	-136.837	0.031241	-5600.79	1.27871
-6.35081	-136.48	0.024469	-5586.19	1.00153
-6.30585	-136.155	0.0271087	-5572.91	1.10958
-6.25612	-135.78	0.027658	-5557.55	1.13206
-6.2086	-135.422	0.0276732	-5542.9	1.13268
-6.16261	-135.022	0.0297525	-5526.51	1.21779
-6.11416	-134.67	0.0202212	-5512.12	0.827665
-6.06868	-134.277	0.0241992	-5496.02	0.990486
-6.02144	-133.96	0.0246159	-5483.03	1.00754
-5.97576	-133.542	0.0310156	-5465.94	1.26948
-5.93053	-133.2	0.0261134	-5451.93	1.06884
-5.87982	-132.803	0.0246997	-5435.68	1.01097
-5.82984	-132.385	0.0223497	-5418.57	0.914784
-5.78585	-132.014	0.0246695	-5403.4	1.00973
-5.72886	-131.544	0.02349	-5384.17	0.961457
-5.68417	-131.182	0.0218583	-5369.33	0.894673
-5.63341	-130.761	0.0218649	-5352.11	0.894943
-5.58573	-130.354	0.0253971	-5335.47	1.03952
-5.53976	-129.925	0.0245624	-5317.91	1.00535
-5.49478	-129.563	0.0248039	-5303.09	1.01524
-5.44106	-129.112	0.0265692	-5284.61	1.08749
-5.39286	-128.673	0.0270515	-5266.66	1.10723
-5.34562	-128.256	0.0263827	-5249.58	1.07986
-5.29887	-127.801	0.0265552	-5230.96	1.08692
-5.25241	-127.402	0.0265512	-5214.63	1.08676
-5.20523	-126.988	0.0232267	-5197.7	0.950681
-5.15722	-126.555	0.02799	-5179.97	1.14565
-5.11002	-126.103	0.0231837	-5161.44	0.94892
-5.06055	-125.681	0.021261	-5144.17	0.870225
-5.01284	-125.187	0.0297499	-5123.95	1.21768
-4.96011	-124.701	0.0222968	-5104.08	0.912621
-4.91342	-124.195	0.0223733	-5083.38	0.915752
-4.86368	-123.734	0.0307486	-5064.48	1.25856
-4.8122	-123.228	0.024648	-5043.8	1.00885
-4.76425	-122.729	0.0268693	-5023.34	1.09978
-4.719	-122.295	0.0216079	-5005.59	0.884424
-4.66803	-121.778	0.0167434	-4984.46	0.685315
-4.61905	-121.271	0.0223946	-4963.69	0.916622
-4.57082	-120.748	0.0237399	-4942.28	0.971687
-4.52139	-120.275	0.0196079	-4922.94	0.80256
-4.47642	-119.804	0.0199696	-4903.64	0.817366
-4.4251	-119.29	0.0256547	-4882.6	1.05006
-4.37141	-118.695	0.0201855	-4858.24	0.826204
-4.32222	-118.138	0.0213844	-4835.43	0.875275
-4.27121	-117.601	0.0203336	-4813.49	0.832264
-4.21975	-116.999	0.0213788	-4788.84	0.875044
-4.17179	-116.472	0.0202979	-4767.25	0.830803
-4.12607	-115.938	0.0224968	-4745.41	0.920806
-4.07756	-115.409	0.0235647	-4723.74	0.964517
-4.03313	-114.923	0.0197466	-4703.87	0.80824
-3.9884	-114.347	0.021443	-4680.3	0.877674
-3.94191	-113.818	0.0199681	-4658.64	0.817304
-3.89369	-113.242	0.018587	-4635.06	0.760776
-3.84671	-112.728	0.0194496	-4614.01	0.796082
-3.79575	-112.033	0.0218748	-4585.59	0.895347
-3.74404	-111.394	0.0214745	-4559.43	0.878963
-3.69953	-110.878	0.0170333	-4538.28	0.697182
-3.65083	-110.314	0.0220568	-4515.22	0.902797
-3.60412	-109.669	0.0209609	-4488.8	0.857939
-3.5571	-109.107	0.020528	-4465.81	0.84022
-3.51039	-108.438	0.0186418	-4438.42	0.76302
-3.46667	-107.914	0.0231667	-4416.99	0.948226
-3.42072	-107.274	0.016629	-4390.76	0.680632
-3.37306	-106.657	0.0178457	-4365.54	0.730435
-3.32631	-105.975	0.0170061	-4337.61	0.696068
-3.27679	-105.372	0.0225603	-4312.95	0.923404
-3.2274	-104.673	0.0164461	-4284.31	0.673148
-3.17863	-103.986	0.018546	-4256.21	0.759097
-3.12595	-103.213	0.0136061	-4224.57	0.556904
-3.07716	-102.547	0.0202058	-4197.32	0.827032
-3.03166	-101.82	0.0186756	-4167.54	0.764402
-2.97698	-101.092	0.0123946	-4137.73	0.507319
-2.93049	-100.35	0.0175521	-4107.36	0.718418
-2.88557	-99.6708	0.0194111	-4079.58	0.794506
-2.83808	-98.9851	0.0168388	-4051.51	0.689222
-2.78491	-98.1331	0.0187844	-4016.64	0.768857
-2.73917	-97.4417	0.0193572	-3988.34	0.792298
-2.68694	-96.5752	0.0173831	-3952.87	0.711501
-2.64315	-95.9315	0.0149344	-3926.52	0.611271
-2.59543	-95.124	0.0149365	-3893.48	0.611359
-2.55173	-94.3735	0.0154418	-3862.76	0.632042
-2.50349	-93.6449	0.0151624	-3832.93	0.620606
-2.45478	-92.8138	0.0173109	-3798.92	0.708545
-2.40883	-92.0204	0.0147283	-3766.44	0.602838
-2.36083	-91.1893	0.0143348	-3732.43	0.586731
-2.31013	-90.311	0.0139593	-3696.48	0.571361
-2.26665	-89.5182	0.0127042	-3664.03	0.519989
-2.21968	-88.723	0.0154289	-3631.48	0.631515
-2.17467	-87.9246	0.0128419	-3598.8	0.525625
-2.12719	-87.1053	0.0142848	-3565.26	0.584682
-2.0785	-86.1915	0.01273	-3527.86	0.521045
-2.03326	-85.3259	0.0109155	-3492.43	0.446777
-1.98356	-84.4048	0.0140218	-3454.73	0.573921
-1.93783	-83.5286	0.0122575	-3418.87	0.501705
-1.89436	-82.6534	0.0140637	-3383.05	0.575634
-1.84743	-81.6759	0.010896	-3343.04	0.44598
-1.80519	-80.8782	0.0121207	-3310.39	0.496105
-1.75219	-79.7455	0.0131496	-3264.02	0.538219
-1.70793	-78.951	0.0123309	-3231.51	0.504711
-1.66823	-78.1294	0.011497	-3197.87	0.470579
-1.62902	-77.3242	0.011799	-3164.92	0.482939
-1.58054	-76.2424	0.0116554	-3120.64	0.477063
-1.53457	-75.2979	0.0129589	-3081.98	0.530413
-1.48885	-74.3124	0.0121837	-3041.65	0.498686
-1.43988	-73.2467	0.0124408	-2998.03	0.509209
-1.39287	-72.2303	0.0124293	-2956.42	0.508739
-1.35018	-71.2492	0.0138694	-2916.27	0.56768
-1.30489	-70.1969	0.0125493	-2873.2	0.513651
-1.25742	-69.0689	0.0111946	-2827.03	0.458202
-1.21247	-68.0229	0.0115324	-2784.21	0.472025
-1.16524	-66.9732	0.0107325	-2741.25	0.439285
-1.11953	-65.8817	0.0108772	-2696.57	0.44521
-1.07802	-64.9264	0.0110025	-2657.47	0.450337
-1.03606	-63.8356	0.0108291	-2612.82	0.44324
-0.99133	-62.7247	0.0119283	-2567.36	0.488233
-0.939142	-61.4768	0.0147645	-2516.28	0.604318
-0.897628	-60.3525	0.0100343	-2470.26	0.410708
-0.849318	-59.1855	0.0109509	-2422.49	0.448225
-0.803626	-58.0278	0.00874039	-2375.11	0.357749
-0.758907	-56.8516	0.0106737	-2326.97	0.436881
-0.71317	-55.5294	0.0101025	-2272.85	0.413502
-0.669695	-54.4631	0.0104494	-2229.2	0.427701
-0.618204	-52.966	0.00947157	-2167.92	0.387676
-0.569487	-51.5986	0.0120335	-2111.96	0.492537
-0.521007	-50.3425	0.0121577	-2060.54	0.497623
-0.476546	-49.0753	0.0117889	-2008.68	0.482525
-0.436266	-47.9439	0.0106175	-1962.37	0.434579
-0.389038	-46.5047	0.00891572	-1903.46	0.364925
-0.33929	-45.0553	0.0106073	-1844.14	0.434162
-0.291557	-43.7234	0.00962468	-1789.62	0.393943
-0.244332	-42.3946	0.0114522	-1735.23	0.468746
-0.200081	-41.0327	0.013169	-1679.49	0.539014
-0.155347	-39.6644	0.0104296	-1623.48	0.426888
-0.112595	-38.2822	0.0110266	-1566.91	0.451324
-0.0695541	-36.8799	0.0106057	-1509.52	0.434097
-0.0235978	-35.4609	0.0128648	-1451.43	0.526563
0.0226037	-34.0137	0.011578	-1392.2	0.473895
0.0710366	-32.5486	0.010308	-1332.23	0.42191
0.119379	-30.9247	0.0108304	-1265.76	0.443294
0.163513	-29.4668	0.0105292	-1206.09	0.430964
0.211608	-27.8233	0.00980743	-1138.82	0.401423
0.25946	-26.3303	0.0108249	-1077.71	0.44307
0.306697	-24.658	0.0116831	-1009.26	0.478197
0.351918	-23.1335	0.0114786	-946.867	0.469826
0.396967	-21.6035	0.013209	-884.243	0.54065
0.445514	-19.8755	0.0107218	-813.516	0.438848
0.489019	-18.5027	0.0127303	-757.325	0.521059
0.532518	-16.9285	0.0126798	-692.893	0.518992
0.577253	-15.3569	0.0112277	-628.568	0.459556
0.621234	-13.7559	0.0123006	-563.037	0.503471
0.670713	-11.9843	0.0112024	-490.523	0.458519
0.718931	-10.3856	0.0118923	-425.09	0.486758
0.765188	-8.57547	0.0126117	-350.998	0.516203
0.810899	-6.93983	0.0131734	-284.051	0.539193
0.858363	-5.30741	0.0123319	-217.235	0.504749
0.905176	-3.46128	0.0115663	-141.672	0.473415
0.952407	-1.80739	0.0142839	-73.9774	0.584649
0.997371	-0.134296	0.012611	-5.49681	0.516173
1.04483	1.72455	0.0152702	70.5868	0.625018
1.0868	3.21969	0.0127668	131.783	0.522552
1.13529	5.09642	0.0105146	208.599	0.430366
1.17776	6.58545	0.013762	269.546	0.563285
1.2235	8.28453	0.0134595	339.09	0.550906
1.27223	10.1711	0.012721	416.309	0.520678
1.31643	11.8752	0.0137792	486.059	0.563989
1.36693	13.7748	0.013915	563.808	0.569547
1.41141	15.4745	0.0139368	633.38	0.57044
1.46011	17.3709	0.0148547	711.001	0.608011
1.51036	19.275	0.0137128	788.937	0.561273
1.55631	20.9712	0.0171413	858.361	0.701604
1.60055	22.6755	0.013491	928.12	0.552193
1.64177	24.1921	0.0135828	990.194	0.555951
1.68924	26.0717	0.0153943	1067.13	0.630096
1.73648	27.7689	0.0146392	1136.6	0.59919
1.78747	29.8322	0.0148089	1221.05	0.606135
1.83793	31.7019	0.0138247	1297.58	0.56585
1.88643	33.3577	0.0158455	1365.35	0.648566
1.93462	35.2151	0.0134075	1441.37	0.548777
1.98686	37.0348	0.013588	1515.86	0.556164
2.03654	38.8748	0.0149381	1591.16	0.611426
2.0843	40.6859	0.0143848	1665.3	0.588778
2.13301	42.4576	0.0155174	1737.81	0.635136
2.18023	44.0964	0.0142784	1804.89	0.584424
2.22222	45.501	0.0136663	1862.38	0.559367
2.2677	47.2379	0.016581	1933.47	0.67867
2.31871	48.9876	0.0153397	2005.09	0.627862
2.37016	50.7111	0.0169107	2075.63	0.692163
2.41664	52.3921	0.0175571	2144.44	0.718623
2.46237	53.9135	0.0156674	2206.71	0.641273
2.51259	55.5831	0.0165935	2275.04	0.679181
2.5558	56.8736	0.0150803	2327.87	0.617246
2.60125	58.4876	0.0176	2393.93	0.720377
2.64523	59.767	0.0196159	2446.29	0.802889
2.69354	61.3574	0.019615	2511.39	0.80285
2.74052	62.767	0.0179173	2569.09	0.733366
2.78723	64.2975	0.0167325	2631.73	0.684868
2.83346	65.6668	0.0134971	2687.78	0.552445
2.88144	67.1656	0.0179378	2749.12	0.734202
2.92891	68.4856	0.0190387	2803.15	0.779263
2.97538	69.7862	0.0188965	2856.39	0.773444
3.02034	71.0828	0.017619	2909.46	0.721153
3.06607	72.47	0.0165019	2966.23	0.675432
3.11355	73.7432	0.0184776	3018.35	0.756296
3.15558	74.8424	0.0186905	3063.34	0.765011
3.20128	76.0517	0.01587	3112.83	0.649567
3.24501	77.2467	0.0186776	3161.75	0.764483
3.29098	78.4144	0.0183326	3209.54	0.750363
3.33871	79.7091	0.0193297	3262.53	0.791174
3.38169	80.8485	0.0159882	3309.17	0.654403
3.4284	81.9635	0.0188439	3354.81	0.771289
3.4751	83.0892	0.0189616	3400.88	0.776107
3.52434	84.298	0.0186368	3450.36	0.762814
3.57358	85.4671	0.0171708	3498.21	0.702811
3.6193	86.5469	0.0178301	3542.41	0.729796
3.66555	87.5408	0.0200289	3583.09	0.819792
3.71475	88.6765	0.0206635	3629.58	0.845767
3.75897	89.6875	0.0182541	3670.96	0.747149
3.80418	90.6562	0.0166345	3710.6	0.680857
3.84843	91.6262	0.0200075	3750.31	0.818915
3.89641	92.6781	0.0180119	3793.36	0.737236
3.93887	93.5305	0.0178831	3828.25	0.731964
3.97984	94.4497	0.0142945	3865.87	0.585082
4.02311	95.2632	0.0226912	3899.17	0.928762
4.06286	96.0575	0.0217544	3931.68	0.890419
4.10457	96.8422	0.0197335	3963.8	0.807702
4.14553	97.7171	0.017288	3999.61	0.707609
4.19051	98.5801	0.0199178	4034.93	0.815244
4.23026	99.2643	0.0206063	4062.94	0.843425
4.27396	100.121	0.0186385	4097.99	0.762884
4.31469	100.853	0.0205399	4127.96	0.84071
4.3584	101.641	0.0212021	4160.21	0.867812
4.40313	102.463	0.021966	4193.85	0.89908
4.44386	103.155	0.0221247	4222.2	0.905576
4.48488	103.948	0.0199696	4254.66	0.817367
4.52962	104.64	0.018633	4282.98	0.762658
4.57536	105.458	0.0196485	4316.46	0.804223
4.62284	106.238	0.0226619	4348.36	0.927564
4.66231	106.886	0.0225408	4374.89	0.922606
4.70653	107.648	0.0195681	4406.08	0.800933
4.74877	108.269	0.0198133	4431.52	0.81097
4.79447	109.055	0.0246471	4463.66	1.00882
4.83595	109.693	0.0231613	4489.78	0.948003
4.87744	110.302	0.0220453	4514.72	0.902325
4.91919	110.915	0.0234179	4539.8	0.958505
4.95969	111.583	0.0184073	4567.15	0.75342
5.00591	112.26	0.0247895	4594.88	1.01465
5.05237	112.911	0.0260963	4621.52	1.06813
5.09984	113.643	0.0226161	4651.47	0.925688
5.14607	114.289	0.0211791	4677.9	0.866873
5.18953	114.935	0.0233575	4704.37	0.956033
5.22978	115.5	0.0222053	4727.48	0.908875
5.27123	116.066	0.0221249	4750.62	0.905584
5.31571	116.675	0.022152	4775.58	0.906693
5.35871	117.256	0.0213988	4799.37	0.875865
5.40169	117.824	0.0276169	4822.62	1.13037
5.44842	118.415	0.022317	4846.77	0.913445
5.48988	118.99	0.0291729	4870.32	1.19406
5.53261	119.487	0.0189313	4890.65	0.774869
5.57585	120.074	0.0233012	4914.68	0.953731
5.6168	120.611	0.0227701	4936.67	0.931992
5.66028	121.166	0.0213075	4959.4	0.872128
5.70875	121.697	0.0242817	4981.13	0.993863
5.75022	122.248	0.0220658	5003.67	0.903164
5.78998	122.706	0.0251025	5022.42	1.02746
5.83573	123.256	0.020281	5044.95	0.83011
5.88148	123.787	0.0156721	5066.66	0.641469
5.92142	124.248	0.0232529	5085.53	0.951753
5.96766	124.788	0.0212213	5107.64	0.868598
6.01463	125.355	0.0186911	5130.84	0.765036
6.0586	125.865	0.0247084	5151.7	1.01133
6.10483	126.379	0.0267299	5172.77	1.09407
6.1468	126.79	0.0262478	5189.56	1.07434
6.1888	127.221	0.0255566	5207.23	1.04605
6.23478	127.784	0.0210689	5230.27	0.862359
6.27981	128.278	0.0209362	5250.48	0.85693
6.32579	128.761	0.0216592	5270.27	0.886524
6.36773	129.152	0.0231512	5286.27	0.947591
6.41348	129.68	0.0224923	5307.85	0.92062
6.4587	130.169	0.0241955	5327.87	0.990333
6.50317	130.623	0.0294383	5346.45	1.20493
6.54217	131.002	0.0258716	5361.99	1.05894
6.58662	131.397	0.0303844	5378.17	1.24365
6.62989	131.867	0.021295	5397.39	0.871614
6.6686	132.267	0.0246175	5413.78	1.00761
6.71013	132.645	0.028238	5429.25	1.1558
6.75009	133.045	0.0244251	5445.62	0.999731
6.79357	133.46	0.0237516	5462.58	0.972167
6.83505	133.84	0.0301343	5478.12	1.23341
6.87979	134.272	0.0210807	5495.8	0.862843
6.91972	134.657	0.0188997	5511.59	0.773576
6.96198	135.056	0.0278897	5527.9	1.14154
7.00646	135.44	0.024932	5543.62	1.02048
7.04842	135.857	0.0272177	5560.69	1.11404
7.08939	136.211	0.0245661	5575.2	1.0055
7.12989	136.533	0.027748	5588.35	1.13574
7.17387	136.996	0.0226616	5607.3	0.927553
7.2156	137.308	0.0281038	5620.07	1.1503
7.26208	137.784	0.0269483	5639.58	1.10301
7.30458	138.078	0.0277097	5651.6	1.13417
7.34755	138.412	0.0274205	5665.29	1.12234
7.38875	138.825	0.0337377	5682.16	1.3809
7.42875	139.155	0.029613	5695.69	1.21207
7.470475	139.531	0.0224298	5711.09	0.918063
7.51372	139.844	0.0261782	5723.88	1.07149
7.5587	140.247	0.027416	5740.39	1.12215
7.59896	140.57	0.0262605	5753.59	1.07486
7.64696	140.978	0.0287944	5770.29	1.17857
7.69217	141.347	0.0239943	5785.4	0.982099
7.73391	141.67	0.0255964	5798.63	1.04767
7.7759	142.011	0.0258946	5812.59	1.05988
7.81811	142.376	0.0250208	5827.52	1.02412
7.86209	142.741	0.0264627	5842.46	1.08313
7.90333	143.037	0.0296261	5854.6	1.21261
7.94881	143.357	0.0251262	5867.69	1.02843
7.98904	143.683	0.0262238	5881.02	1.07335
8.0348	144.018	0.0271679	5894.72	1.112
8.08105	144.333	0.0227756	5907.63	0.932218
8.12583	144.663	0.030606	5921.13	1.25272
8.16798	144.999	0.0345153	5934.9	1.41273
8.20652	145.316	0.0231721	5947.87	0.948445
8.25176	145.585	0.0348633	5958.89	1.42697
8.2917	145.911	0.0282007	5972.21	1.15427
8.33568	146.2	0.0231763	5984.05	0.948618
8.37541	146.538	0.0298099	5997.86	1.22013
8.41839	146.816	0.0351583	6009.24	1.43905
8.45887	147.089	0.0271502	6020.44	1.11127
8.49487	147.332	0.018524	6030.37	0.758195
8.53834	147.647	0.0365501	6043.27	1.49602
8.57386	147.882	0.0288855	6052.89	1.1823
8.61281	148.154	0.0336756	6064.02	1.37836
8.6538	148.434	0.0267407	6075.48	1.09451
8.693575	148.662	0.0243812	6084.79	0.997935
8.73156	148.971	0.0233246	6097.44	0.95469
8.76901	149.179	0.0315161	6105.98	1.28997
8.80748	149.456	0.0272542	6117.3	1.11553
8.84468	149.688	0.0253485	6126.8	1.03753
8.88293	149.939	0.032639	6137.08	1.33593
8.92145	150.205	0.0267031	6147.98	1.09297
8.96174	150.49	0.0297775	6159.65	1.21881
8.99995	150.76	0.0343934	6170.7	1.40774
8.96395	150.682	0.0335709	6167.5	1.37407
8.92445	150.501	0.0288417	6160.07	1.18051
8.88423	150.26	0.0301134	6150.22	1.23256
8.84173	150.04	0.0308686	6141.2	1.26347
8.80329	149.814	0.0314501	6131.97	1.28727
8.76357	149.637	0.0318391	6124.72	1.30319
8.72208	149.42	0.0302064	6115.85	1.23636
8.68358	149.185	0.0275742	6106.21	1.12863
8.64408	148.94	0.0314765	6096.18	1.28835
8.6021	148.747	0.0268734	6088.27	1.09994
8.56388	148.493	0.0327964	6077.88	1.34237
8.52417	148.318	0.0279416	6070.71	1.14366
8.48318	148.103	0.0237377	6061.94	0.971596
8.43966	147.847	0.0358814	6051.47	1.46864
8.39294	147.562	0.0235069	6039.78	0.962151
8.35493	147.326	0.0301651	6030.13	1.23467
8.31246	147.084	0.0296285	6020.21	1.21271
8.27398	146.873	0.0227703	6011.61	0.932001
8.2275	146.621	0.0372769	6001.29	1.52576
8.18176	146.336	0.0273746	5989.59	1.12046
8.13601	146.103	0.0283163	5980.06	1.159
8.09056	145.817	0.0351213	5968.36	1.43753
8.04382	145.55	0.0308566	5957.44	1.26298
8.00175	145.299	0.0243693	5947.18	0.99745
7.95404	144.984	0.0266848	5934.25	1.09222
7.9088	144.716	0.0278469	5923.29	1.13979
7.85807	144.442	0.0245175	5912.09	1.00351
7.81179	144.1	0.0260167	5898.09	1.06488
7.76763	143.868	0.0213473	5888.6	0.873756
7.72488	143.584	0.0289309	5876.97	1.18416
7.67766	143.299	0.0262636	5865.28	1.07498
7.63016	143.014	0.0262258	5853.65	1.07344
7.58318	142.721	0.025426	5841.66	1.0407
7.53842	142.446	0.0284106	5830.37	1.16286
7.49541	142.129	0.022894	5817.43	0.937065
7.44693	141.815	0.02488	5804.55	1.01835
7.40373	141.567	0.025162	5794.42	1.02989
7.36096	141.263	0.0206495	5781.98	0.845193
7.31724	140.984	0.023351	5770.56	0.955769
7.27701	140.761	0.0258574	5761.42	1.05836
7.23379	140.453	0.028894	5748.8	1.18265
7.19428	140.189	0.029372	5737.99	1.20221
7.15007	139.863	0.0289927	5724.65	1.18669
7.10259	139.548	0.0294923	5711.78	1.20713
7.06156	139.242	0.0209376	5699.24	0.856986
7.01708	138.959	0.0259774	5687.65	1.06327
6.97466	138.697	0.0247773	5676.94	1.01415
6.92617	138.364	0.027411	5663.3	1.12195
6.88219	138.06	0.0242954	5650.86	0.994424
6.8372	137.714	0.0246091	5636.69	1.00726
6.79324	137.4	0.0256802	5623.87	1.0511
6.75048	137.162	0.0277067	5614.12	1.13405
6.70327	136.797	0.0273633	5599.16	1.11999
6.65698	136.469	0.0206563	5585.75	0.845473
6.61205	136.099	0.0295703	5570.59	1.21033
6.57131	135.832	0.0254175	5559.67	1.04035
6.52684	135.495	0.0257462	5545.87	1.05381
6.4781	135.119	0.0256172	5530.5	1.04852
6.43834	134.891	0.0229417	5521.14	0.939014
6.39187	134.525	0.0279265	5506.16	1.14304
6.34443	134.166	0.0276692	5491.48	1.13251
6.3007	133.834	0.0226117	5477.9	0.925508
6.25571	133.504	0.0219754	5464.39	0.899465
6.21218	133.166	0.0212115	5450.54	0.868198
6.16343	132.741	0.0197183	5433.16	0.807079
6.12294	132.472	0.0251126	5422.13	1.02787
6.0762	132.085	0.0225829	5406.32	0.92433
6.02825	131.727	0.023159	5391.65	0.947911
5.98031	131.36	0.0254239	5376.61	1.04061
5.93529	130.994	0.0216159	5361.65	0.884749
5.89108	130.621	0.0253372	5346.39	1.03706
5.84361	130.274	0.018819	5332.16	0.770271
5.7926	129.791	0.0247045	5312.41	1.01117
5.74838	129.473	0.0224578	5299.41	0.91921
5.70412	129.137	0.0269077	5285.63	1.10134
5.65992	128.681	0.0191316	5266.98	0.783067
5.63541	128.541	0.0196557	5261.23	0.804518