File: data/monolayers/nanoparticles/Ac_CoFe_C/edx/data/AH11_5.txt
#FORMAT      : EMSA/MAS Spectral Data File
#VERSION     : 1.0
#TITLE       : Spectrum 1
#DATE        : 04-DEC-2018
#TIME        : 10:28
#OWNER       :
#NPOINTS     : 2048.
#NCOLUMNS    : 1.
#XUNITS      : keV
#YUNITS      : counts
#DATATYPE    : XY
#XPERCHAN    : 0.0100000
#OFFSET      : -0.200000
#SIGNALTYPE  : EDS
#CHOFFSET    : 20.0000
#LIVETIME    : 100
#REALTIME    : 114.384
#BEAMKV      : 20.0000
#PROBECUR    : 0.000000
#MAGCAM      : 1390.00
#XTILTSTGE   : 0.0
#AZIMANGLE   : 0.0
#ELEVANGLE   : 35.0
#XPOSITION mm: 0.0000
#YPOSITION mm: 0.0000
#ZPOSITION mm: 0.0000
##OXINSTPT   : 5
##OXINSTSTROB: 49.24
##OXINSTELEMS: 6,8,11,14,26,27
##OXINSTLABEL: 26, 6.404, Fe
##OXINSTLABEL: 26, 7.058, Fe
##OXINSTLABEL: 26, 0.705, Fe
##OXINSTLABEL: 26, 0.628, Fe
##OXINSTLABEL: 8, 0.525, O
##OXINSTLABEL: 6, 0.277, C
##OXINSTLABEL: 27, 6.930, Co
##OXINSTLABEL: 27, 7.650, Co
##OXINSTLABEL: 27, 0.776, Co
##OXINSTLABEL: 27, 0.694, Co
##OXINSTLABEL: 27, 0.678, Co
##OXINSTLABEL: 14, 1.740, Si
##OXINSTLABEL: 11, 1.041, Na
#SPECTRUM    : Spectral Data Starts Here
-0.20000, 0.
-0.18000, 4.
-0.16000, 5.
-0.14000, 3.
-0.12000, 4.
-0.10000, 4.
-0.08000, 4.
-0.06000, 41.
-0.04000, 447.
-0.02000, 2158.
0.00000, 5015.
0.02000, 5543.
0.04000, 3075.
0.06000, 873.
0.08000, 195.
0.10000, 77.
0.12000, 88.
0.14000, 102.
0.16000, 146.
0.18000, 180.
0.20000, 257.
0.22000, 476.
0.24000, 1144.
0.26000, 1952.
0.28000, 1980.
0.30000, 1270.
0.32000, 453.
0.34000, 203.
0.36000, 157.
0.38000, 171.
0.40000, 158.
0.42000, 135.
0.44000, 111.
0.46000, 180.
0.48000, 540.
0.50000, 1081.
0.52000, 1492.
0.54000, 1180.
0.56000, 600.
0.58000, 269.
0.60000, 209.
0.62000, 239.
0.64000, 236.
0.66000, 324.
0.68000, 545.
0.70000, 721.
0.72000, 661.
0.74000, 514.
0.76000, 343.
0.78000, 304.
0.80000, 220.
0.82000, 166.
0.84000, 87.
0.86000, 70.
0.88000, 58.
0.90000, 57.
0.92000, 54.
0.94000, 51.
0.96000, 55.
0.98000, 70.
1.00000, 67.
1.02000, 84.
1.04000, 99.
1.06000, 81.
1.08000, 80.
1.10000, 78.
1.12000, 62.
1.14000, 70.
1.16000, 70.
1.18000, 75.
1.20000, 78.
1.22000, 84.
1.24000, 80.
1.26000, 78.
1.28000, 81.
1.30000, 95.
1.32000, 84.
1.34000, 91.
1.36000, 94.
1.38000, 83.
1.40000, 92.
1.42000, 90.
1.44000, 92.
1.46000, 102.
1.48000, 88.
1.50000, 99.
1.52000, 101.
1.54000, 104.
1.56000, 84.
1.58000, 94.
1.60000, 104.
1.62000, 96.
1.64000, 114.
1.66000, 105.
1.68000, 111.
1.70000, 121.
1.72000, 150.
1.74000, 158.
1.76000, 166.
1.78000, 152.
1.80000, 130.
1.82000, 119.
1.84000, 111.
1.86000, 105.
1.88000, 107.
1.90000, 111.
1.92000, 123.
1.94000, 103.
1.96000, 100.
1.98000, 107.
2.00000, 119.
2.02000, 102.
2.04000, 125.
2.06000, 113.
2.08000, 107.
2.10000, 102.
2.12000, 117.
2.14000, 112.
2.16000, 103.
2.18000, 103.
2.20000, 105.
2.22000, 99.
2.24000, 102.
2.26000, 106.
2.28000, 105.
2.30000, 103.
2.32000, 112.
2.34000, 120.
2.36000, 98.
2.38000, 110.
2.40000, 92.
2.42000, 103.
2.44000, 100.
2.46000, 102.
2.48000, 101.
2.50000, 104.
2.52000, 105.
2.54000, 105.
2.56000, 87.
2.58000, 99.
2.60000, 93.
2.62000, 113.
2.64000, 103.
2.66000, 100.
2.68000, 93.
2.70000, 110.
2.72000, 99.
2.74000, 97.
2.76000, 100.
2.78000, 97.
2.80000, 99.
2.82000, 89.
2.84000, 91.
2.86000, 88.
2.88000, 87.
2.90000, 96.
2.92000, 97.
2.94000, 82.
2.96000, 96.
2.98000, 94.
3.00000, 93.
3.02000, 97.
3.04000, 93.
3.06000, 88.
3.08000, 89.
3.10000, 97.
3.12000, 89.
3.14000, 90.
3.16000, 81.
3.18000, 87.
3.20000, 88.
3.22000, 73.
3.24000, 83.
3.26000, 80.
3.28000, 84.
3.30000, 92.
3.32000, 89.
3.34000, 99.
3.36000, 88.
3.38000, 88.
3.40000, 79.
3.42000, 79.
3.44000, 83.
3.46000, 86.
3.48000, 72.
3.50000, 85.
3.52000, 71.
3.54000, 71.
3.56000, 81.
3.58000, 83.
3.60000, 84.
3.62000, 82.
3.64000, 79.
3.66000, 67.
3.68000, 74.
3.70000, 75.
3.72000, 71.
3.74000, 76.
3.76000, 73.
3.78000, 70.
3.80000, 67.
3.82000, 70.
3.84000, 67.
3.86000, 71.
3.88000, 63.
3.90000, 55.
3.92000, 60.
3.94000, 67.
3.96000, 66.
3.98000, 73.
4.00000, 70.
4.02000, 50.
4.04000, 68.
4.06000, 63.
4.08000, 63.
4.10000, 64.
4.12000, 65.
4.14000, 66.
4.16000, 60.
4.18000, 56.
4.20000, 62.
4.22000, 52.
4.24000, 59.
4.26000, 69.
4.28000, 58.
4.30000, 56.
4.32000, 56.
4.34000, 60.
4.36000, 64.
4.38000, 50.
4.40000, 69.
4.42000, 56.
4.44000, 57.
4.46000, 48.
4.48000, 58.
4.50000, 55.
4.52000, 63.
4.54000, 48.
4.56000, 49.
4.58000, 56.
4.60000, 57.
4.62000, 58.
4.64000, 57.
4.66000, 52.
4.68000, 56.
4.70000, 58.
4.72000, 53.
4.74000, 62.
4.76000, 62.
4.78000, 55.
4.80000, 48.
4.82000, 41.
4.84000, 54.
4.86000, 48.
4.88000, 50.
4.90000, 55.
4.92000, 41.
4.94000, 58.
4.96000, 52.
4.98000, 45.
5.00000, 50.
5.02000, 47.
5.04000, 47.
5.06000, 51.
5.08000, 45.
5.10000, 61.
5.12000, 48.
5.14000, 48.
5.16000, 46.
5.18000, 42.
5.20000, 45.
5.22000, 47.
5.24000, 51.
5.26000, 49.
5.28000, 41.
5.30000, 55.
5.32000, 41.
5.34000, 48.
5.36000, 51.
5.38000, 45.
5.40000, 43.
5.42000, 41.
5.44000, 50.
5.46000, 36.
5.48000, 48.
5.50000, 37.
5.52000, 39.
5.54000, 46.
5.56000, 39.
5.58000, 50.
5.60000, 38.
5.62000, 43.
5.64000, 46.
5.66000, 36.
5.68000, 45.
5.70000, 45.
5.72000, 55.
5.74000, 41.
5.76000, 45.
5.78000, 39.
5.80000, 36.
5.82000, 35.
5.84000, 36.
5.86000, 43.
5.88000, 28.
5.90000, 47.
5.92000, 39.
5.94000, 31.
5.96000, 33.
5.98000, 36.
6.00000, 36.
6.02000, 44.
6.04000, 44.
6.06000, 35.
6.08000, 42.
6.10000, 43.
6.12000, 37.
6.14000, 30.
6.16000, 46.
6.18000, 42.
6.20000, 42.
6.22000, 68.
6.24000, 91.
6.26000, 131.
6.28000, 233.
6.30000, 424.
6.32000, 711.
6.34000, 1077.
6.36000, 1425.
6.38000, 1809.
6.40000, 1826.
6.42000, 1737.
6.44000, 1496.
6.46000, 1134.
6.48000, 726.
6.50000, 442.
6.52000, 244.
6.54000, 131.
6.56000, 96.
6.58000, 61.
6.60000, 42.
6.62000, 49.
6.64000, 48.
6.66000, 38.
6.68000, 35.
6.70000, 32.
6.72000, 37.
6.74000, 35.
6.76000, 48.
6.78000, 79.
6.80000, 98.
6.82000, 110.
6.84000, 217.
6.86000, 289.
6.88000, 379.
6.90000, 434.
6.92000, 472.
6.94000, 558.
6.96000, 521.
6.98000, 429.
7.00000, 393.
7.02000, 360.
7.04000, 324.
7.06000, 326.
7.08000, 267.
7.10000, 205.
7.12000, 156.
7.14000, 117.
7.16000, 95.
7.18000, 69.
7.20000, 49.
7.22000, 34.
7.24000, 36.
7.26000, 26.
7.28000, 19.
7.30000, 32.
7.32000, 27.
7.34000, 27.
7.36000, 24.
7.38000, 26.
7.40000, 20.
7.42000, 28.
7.44000, 36.
7.46000, 25.
7.48000, 26.
7.50000, 26.
7.52000, 31.
7.54000, 37.
7.56000, 36.
7.58000, 55.
7.60000, 69.
7.62000, 67.
7.64000, 78.
7.66000, 88.
7.68000, 74.
7.70000, 66.
7.72000, 56.
7.74000, 39.
7.76000, 36.
7.78000, 28.
7.80000, 31.
7.82000, 30.
7.84000, 14.
7.86000, 28.
7.88000, 16.
7.90000, 22.
7.92000, 23.
7.94000, 22.
7.96000, 21.
7.98000, 17.
8.00000, 26.
8.02000, 15.
8.04000, 19.
8.06000, 18.
8.08000, 24.
8.10000, 18.
8.12000, 29.
8.14000, 24.
8.16000, 20.
8.18000, 22.
8.20000, 14.
8.22000, 16.
8.24000, 13.
8.26000, 25.
8.28000, 24.
8.30000, 19.
8.32000, 13.
8.34000, 20.
8.36000, 21.
8.38000, 23.
8.40000, 19.
8.42000, 16.
8.44000, 24.
8.46000, 19.
8.48000, 23.
8.50000, 20.
8.52000, 16.
8.54000, 17.
8.56000, 19.
8.58000, 19.
8.60000, 27.
8.62000, 28.
8.64000, 22.
8.66000, 18.
8.68000, 17.
8.70000, 18.
8.72000, 20.
8.74000, 20.
8.76000, 19.
8.78000, 18.
8.80000, 23.
8.82000, 19.
8.84000, 18.
8.86000, 18.
8.88000, 19.
8.90000, 20.
8.92000, 16.
8.94000, 17.
8.96000, 14.
8.98000, 12.
9.00000, 18.
9.02000, 12.
9.04000, 20.
9.06000, 19.
9.08000, 16.
9.10000, 15.
9.12000, 17.
9.14000, 21.
9.16000, 9.
9.18000, 17.
9.20000, 16.
9.22000, 17.
9.24000, 18.
9.26000, 21.
9.28000, 19.
9.30000, 19.
9.32000, 18.
9.34000, 16.
9.36000, 20.
9.38000, 15.
9.40000, 19.
9.42000, 16.
9.44000, 13.
9.46000, 15.
9.48000, 12.
9.50000, 17.
9.52000, 14.
9.54000, 14.
9.56000, 19.
9.58000, 17.
9.60000, 16.
9.62000, 15.
9.64000, 18.
9.66000, 15.
9.68000, 17.
9.70000, 13.
9.72000, 12.
9.74000, 20.
9.76000, 15.
9.78000, 12.
9.80000, 16.
9.82000, 21.
9.84000, 17.
9.86000, 22.
9.88000, 16.
9.90000, 9.
9.92000, 14.
9.94000, 15.
9.96000, 11.
9.98000, 19.
10.00000, 15.
10.02000, 13.
10.04000, 11.
10.06000, 13.
10.08000, 16.
10.10000, 14.
10.12000, 14.
10.14000, 17.
10.16000, 12.
10.18000, 14.
10.20000, 11.
10.22000, 11.
10.24000, 13.
10.26000, 11.
10.28000, 11.
10.30000, 19.
10.32000, 14.
10.34000, 13.
10.36000, 12.
10.38000, 12.
10.40000, 14.
10.42000, 12.
10.44000, 13.
10.46000, 13.
10.48000, 12.
10.50000, 13.
10.52000, 15.
10.54000, 13.
10.56000, 12.
10.58000, 9.
10.60000, 9.
10.62000, 16.
10.64000, 17.
10.66000, 13.
10.68000, 11.
10.70000, 13.
10.72000, 10.
10.74000, 14.
10.76000, 10.
10.78000, 15.
10.80000, 10.
10.82000, 13.
10.84000, 12.
10.86000, 17.
10.88000, 16.
10.90000, 12.
10.92000, 13.
10.94000, 14.
10.96000, 11.
10.98000, 13.
11.00000, 10.
11.02000, 14.
11.04000, 11.
11.06000, 11.
11.08000, 13.
11.10000, 9.
11.12000, 10.
11.14000, 10.
11.16000, 15.
11.18000, 14.
11.20000, 14.
11.22000, 12.
11.24000, 14.
11.26000, 12.
11.28000, 7.
11.30000, 13.
11.32000, 9.
11.34000, 8.
11.36000, 14.
11.38000, 11.
11.40000, 9.
11.42000, 15.
11.44000, 13.
11.46000, 7.
11.48000, 14.
11.50000, 14.
11.52000, 12.
11.54000, 13.
11.56000, 13.
11.58000, 7.
11.60000, 10.
11.62000, 13.
11.64000, 15.
11.66000, 10.
11.68000, 6.
11.70000, 10.
11.72000, 8.
11.74000, 11.
11.76000, 12.
11.78000, 7.
11.80000, 14.
11.82000, 5.
11.84000, 11.
11.86000, 8.
11.88000, 6.
11.90000, 8.
11.92000, 11.
11.94000, 8.
11.96000, 10.
11.98000, 7.
12.00000, 14.
12.02000, 10.
12.04000, 9.
12.06000, 7.
12.08000, 8.
12.10000, 9.
12.12000, 5.
12.14000, 9.
12.16000, 7.
12.18000, 8.
12.20000, 7.
12.22000, 12.
12.24000, 10.
12.26000, 10.
12.28000, 6.
12.30000, 9.
12.32000, 8.
12.34000, 12.
12.36000, 8.
12.38000, 6.
12.40000, 12.
12.42000, 6.
12.44000, 11.
12.46000, 7.
12.48000, 6.
12.50000, 7.
12.52000, 5.
12.54000, 9.
12.56000, 6.
12.58000, 11.
12.60000, 8.
12.62000, 11.
12.64000, 8.
12.66000, 9.
12.68000, 9.
12.70000, 9.
12.72000, 9.
12.74000, 8.
12.76000, 9.
12.78000, 9.
12.80000, 7.
12.82000, 10.
12.84000, 9.
12.86000, 9.
12.88000, 4.
12.90000, 8.
12.92000, 8.
12.94000, 7.
12.96000, 7.
12.98000, 7.
13.00000, 4.
13.02000, 4.
13.04000, 6.
13.06000, 7.
13.08000, 10.
13.10000, 11.
13.12000, 8.
13.14000, 7.
13.16000, 9.
13.18000, 10.
13.20000, 9.
13.22000, 11.
13.24000, 5.
13.26000, 11.
13.28000, 7.
13.30000, 7.
13.32000, 6.
13.34000, 5.
13.36000, 8.
13.38000, 4.
13.40000, 4.
13.42000, 7.
13.44000, 7.
13.46000, 5.
13.48000, 6.
13.50000, 10.
13.52000, 5.
13.54000, 6.
13.56000, 6.
13.58000, 5.
13.60000, 7.
13.62000, 9.
13.64000, 5.
13.66000, 6.
13.68000, 7.
13.70000, 5.
13.72000, 5.
13.74000, 5.
13.76000, 4.
13.78000, 5.
13.80000, 6.
13.82000, 4.
13.84000, 6.
13.86000, 7.
13.88000, 3.
13.90000, 6.
13.92000, 6.
13.94000, 9.
13.96000, 9.
13.98000, 9.
14.00000, 7.
14.02000, 6.
14.04000, 7.
14.06000, 3.
14.08000, 6.
14.10000, 6.
14.12000, 6.
14.14000, 9.
14.16000, 6.
14.18000, 5.
14.20000, 4.
14.22000, 4.
14.24000, 5.
14.26000, 6.
14.28000, 3.
14.30000, 8.
14.32000, 4.
14.34000, 10.
14.36000, 5.
14.38000, 4.
14.40000, 5.
14.42000, 3.
14.44000, 6.
14.46000, 5.
14.48000, 5.
14.50000, 5.
14.52000, 4.
14.54000, 4.
14.56000, 4.
14.58000, 8.
14.60000, 4.
14.62000, 4.
14.64000, 11.
14.66000, 6.
14.68000, 5.
14.70000, 6.
14.72000, 5.
14.74000, 5.
14.76000, 6.
14.78000, 3.
14.80000, 8.
14.82000, 5.
14.84000, 8.
14.86000, 2.
14.88000, 4.
14.90000, 7.
14.92000, 7.
14.94000, 3.
14.96000, 4.
14.98000, 5.
15.00000, 5.
15.02000, 5.
15.04000, 3.
15.06000, 5.
15.08000, 6.
15.10000, 4.
15.12000, 4.
15.14000, 5.
15.16000, 5.
15.18000, 5.
15.20000, 4.
15.22000, 5.
15.24000, 11.
15.26000, 4.
15.28000, 5.
15.30000, 4.
15.32000, 4.
15.34000, 5.
15.36000, 3.
15.38000, 8.
15.40000, 5.
15.42000, 6.
15.44000, 5.
15.46000, 4.
15.48000, 2.
15.50000, 6.
15.52000, 6.
15.54000, 5.
15.56000, 2.
15.58000, 4.
15.60000, 3.
15.62000, 3.
15.64000, 5.
15.66000, 5.
15.68000, 4.
15.70000, 4.
15.72000, 6.
15.74000, 4.
15.76000, 2.
15.78000, 3.
15.80000, 3.
15.82000, 2.
15.84000, 2.
15.86000, 5.
15.88000, 3.
15.90000, 6.
15.92000, 5.
15.94000, 3.
15.96000, 2.
15.98000, 7.
16.00000, 2.
16.02000, 7.
16.04000, 3.
16.06000, 3.
16.08000, 5.
16.10000, 2.
16.12000, 3.
16.14000, 5.
16.16000, 3.
16.18000, 2.
16.20000, 4.
16.22000, 4.
16.24000, 5.
16.26000, 2.
16.28000, 3.
16.30000, 4.
16.32000, 2.
16.34000, 6.
16.36000, 5.
16.38000, 1.
16.40000, 1.
16.42000, 3.
16.44000, 0.
16.46000, 6.
16.48000, 6.
16.50000, 4.
16.52000, 2.
16.54000, 0.
16.56000, 2.
16.58000, 5.
16.60000, 3.
16.62000, 3.
16.64000, 2.
16.66000, 4.
16.68000, 2.
16.70000, 0.
16.72000, 2.
16.74000, 3.
16.76000, 1.
16.78000, 2.
16.80000, 4.
16.82000, 3.
16.84000, 2.
16.86000, 4.
16.88000, 2.
16.90000, 1.
16.92000, 4.
16.94000, 3.
16.96000, 1.
16.98000, 3.
17.00000, 2.
17.02000, 1.
17.04000, 0.
17.06000, 4.
17.08000, 6.
17.10000, 2.
17.12000, 1.
17.14000, 3.
17.16000, 2.
17.18000, 3.
17.20000, 1.
17.22000, 2.
17.24000, 2.
17.26000, 2.
17.28000, 0.
17.30000, 0.
17.32000, 2.
17.34000, 0.
17.36000, 2.
17.38000, 0.
17.40000, 1.
17.42000, 1.
17.44000, 1.
17.46000, 1.
17.48000, 2.
17.50000, 2.
17.52000, 2.
17.54000, 2.
17.56000, 1.
17.58000, 3.
17.60000, 2.
17.62000, 2.
17.64000, 1.
17.66000, 0.
17.68000, 3.
17.70000, 3.
17.72000, 3.
17.74000, 1.
17.76000, 0.
17.78000, 1.
17.80000, 1.
17.82000, 2.
17.84000, 1.
17.86000, 0.
17.88000, 1.
17.90000, 2.
17.92000, 0.
17.94000, 2.
17.96000, 1.
17.98000, 2.
18.00000, 0.
18.02000, 1.
18.04000, 1.
18.06000, 0.
18.08000, 1.
18.10000, 0.
18.12000, 2.
18.14000, 1.
18.16000, 0.
18.18000, 3.
18.20000, 1.
18.22000, 1.
18.24000, 1.
18.26000, 0.
18.28000, 0.
18.30000, 3.
18.32000, 0.
18.34000, 0.
18.36000, 1.
18.38000, 0.
18.40000, 0.
18.42000, 1.
18.44000, 0.
18.46000, 0.
18.48000, 1.
18.50000, 0.
18.52000, 1.
18.54000, 1.
18.56000, 1.
18.58000, 0.
18.60000, 2.
18.62000, 0.
18.64000, 1.
18.66000, 2.
18.68000, 2.
18.70000, 0.
18.72000, 0.
18.74000, 0.
18.76000, 0.
18.78000, 0.
18.80000, 0.
18.82000, 0.
18.84000, 0.
18.86000, 1.
18.88000, 0.
18.90000, 1.
18.92000, 0.
18.94000, 0.
18.96000, 0.
18.98000, 0.
19.00000, 1.
19.02000, 0.
19.04000, 0.
19.06000, 0.
19.08000, 1.
19.10000, 1.
19.12000, 1.
19.14000, 1.
19.16000, 0.
19.18000, 0.
19.20000, 1.
19.22000, 0.
19.24000, 0.
19.26000, 0.
19.28000, 0.
19.30000, 1.
19.32000, 0.
19.34000, 1.
19.36000, 0.
19.38000, 1.
19.40000, 0.
19.42000, 1.
19.44000, 0.
19.46000, 1.
19.48000, 0.
19.50000, 0.
19.52000, 0.
19.54000, 0.
19.56000, 0.
19.58000, 0.
19.60000, 0.
19.62000, 1.
19.64000, 0.
19.66000, 0.
19.68000, 0.
19.70000, 0.
19.72000, 0.
19.74000, 0.
19.76000, 0.
19.78000, 0.
19.80000, 0.
19.82000, 0.
19.84000, 0.
19.86000, 0.
19.88000, 0.
19.90000, 0.
19.92000, 0.
19.94000, 0.
19.96000, 0.
19.98000, 0.
20.00000, 0.
20.02000, 0.
20.04000, 0.
20.06000, 0.
20.08000, 0.
20.10000, 0.
20.12000, 0.
20.14000, 0.
20.16000, 0.
20.18000, 0.
20.20000, 0.
20.22000, 0.
20.24000, 0.
20.26000, 0.
20.27000, 0.
#ENDOFDATA   :