File: data/monolayers/nanoparticles/Ac_CoFe_C/edx/data/AH11_4.txt
#FORMAT      : EMSA/MAS Spectral Data File
#VERSION     : 1.0
#TITLE       : Spectrum 1
#DATE        : 04-DEC-2018
#TIME        : 10:26
#OWNER       :
#NPOINTS     : 2048.
#NCOLUMNS    : 1.
#XUNITS      : keV
#YUNITS      : counts
#DATATYPE    : XY
#XPERCHAN    : 0.0100000
#OFFSET      : -0.200000
#SIGNALTYPE  : EDS
#CHOFFSET    : 20.0000
#LIVETIME    : 100
#REALTIME    : 113.975
#BEAMKV      : 20.0000
#PROBECUR    : 0.000000
#MAGCAM      : 1390.00
#XTILTSTGE   : 0.0
#AZIMANGLE   : 0.0
#ELEVANGLE   : 35.0
#XPOSITION mm: 0.0000
#YPOSITION mm: 0.0000
#ZPOSITION mm: 0.0000
##OXINSTPT   : 5
##OXINSTSTROB: 49.42
##OXINSTELEMS: 6,8,14,26,27
##OXINSTLABEL: 14, 1.740, Si
##OXINSTLABEL: 26, 6.404, Fe
##OXINSTLABEL: 26, 7.058, Fe
##OXINSTLABEL: 26, 0.705, Fe
##OXINSTLABEL: 26, 0.628, Fe
##OXINSTLABEL: 8, 0.525, O
##OXINSTLABEL: 27, 6.930, Co
##OXINSTLABEL: 27, 7.650, Co
##OXINSTLABEL: 27, 0.776, Co
##OXINSTLABEL: 27, 0.694, Co
##OXINSTLABEL: 27, 0.678, Co
##OXINSTLABEL: 6, 0.277, C
#SPECTRUM    : Spectral Data Starts Here
-0.20000, 0.
-0.18000, 0.
-0.16000, 0.
-0.14000, 1.
-0.12000, 1.
-0.10000, 3.
-0.08000, 7.
-0.06000, 54.
-0.04000, 476.
-0.02000, 2171.
0.00000, 5013.
0.02000, 5719.
0.04000, 3256.
0.06000, 953.
0.08000, 205.
0.10000, 88.
0.12000, 89.
0.14000, 86.
0.16000, 58.
0.18000, 60.
0.20000, 76.
0.22000, 167.
0.24000, 407.
0.26000, 693.
0.28000, 745.
0.30000, 447.
0.32000, 160.
0.34000, 61.
0.36000, 43.
0.38000, 28.
0.40000, 38.
0.42000, 51.
0.44000, 93.
0.46000, 237.
0.48000, 608.
0.50000, 1304.
0.52000, 1814.
0.54000, 1469.
0.56000, 758.
0.58000, 302.
0.60000, 220.
0.62000, 229.
0.64000, 252.
0.66000, 343.
0.68000, 539.
0.70000, 762.
0.72000, 715.
0.74000, 493.
0.76000, 362.
0.78000, 309.
0.80000, 238.
0.82000, 152.
0.84000, 74.
0.86000, 48.
0.88000, 36.
0.90000, 37.
0.92000, 33.
0.94000, 30.
0.96000, 43.
0.98000, 36.
1.00000, 49.
1.02000, 54.
1.04000, 56.
1.06000, 51.
1.08000, 62.
1.10000, 50.
1.12000, 49.
1.14000, 67.
1.16000, 57.
1.18000, 52.
1.20000, 63.
1.22000, 57.
1.24000, 69.
1.26000, 58.
1.28000, 72.
1.30000, 70.
1.32000, 66.
1.34000, 77.
1.36000, 84.
1.38000, 76.
1.40000, 81.
1.42000, 67.
1.44000, 81.
1.46000, 90.
1.48000, 86.
1.50000, 95.
1.52000, 81.
1.54000, 80.
1.56000, 102.
1.58000, 89.
1.60000, 87.
1.62000, 96.
1.64000, 95.
1.66000, 129.
1.68000, 167.
1.70000, 280.
1.72000, 374.
1.74000, 464.
1.76000, 419.
1.78000, 313.
1.80000, 204.
1.82000, 140.
1.84000, 128.
1.86000, 111.
1.88000, 105.
1.90000, 98.
1.92000, 105.
1.94000, 90.
1.96000, 87.
1.98000, 100.
2.00000, 99.
2.02000, 102.
2.04000, 92.
2.06000, 96.
2.08000, 103.
2.10000, 99.
2.12000, 106.
2.14000, 91.
2.16000, 97.
2.18000, 99.
2.20000, 87.
2.22000, 104.
2.24000, 105.
2.26000, 98.
2.28000, 89.
2.30000, 91.
2.32000, 94.
2.34000, 102.
2.36000, 103.
2.38000, 98.
2.40000, 99.
2.42000, 107.
2.44000, 108.
2.46000, 102.
2.48000, 87.
2.50000, 93.
2.52000, 99.
2.54000, 86.
2.56000, 95.
2.58000, 92.
2.60000, 90.
2.62000, 102.
2.64000, 98.
2.66000, 91.
2.68000, 91.
2.70000, 94.
2.72000, 83.
2.74000, 93.
2.76000, 92.
2.78000, 84.
2.80000, 70.
2.82000, 91.
2.84000, 75.
2.86000, 93.
2.88000, 95.
2.90000, 92.
2.92000, 85.
2.94000, 80.
2.96000, 100.
2.98000, 79.
3.00000, 90.
3.02000, 85.
3.04000, 86.
3.06000, 88.
3.08000, 86.
3.10000, 77.
3.12000, 87.
3.14000, 84.
3.16000, 80.
3.18000, 82.
3.20000, 78.
3.22000, 79.
3.24000, 77.
3.26000, 82.
3.28000, 84.
3.30000, 82.
3.32000, 66.
3.34000, 79.
3.36000, 77.
3.38000, 80.
3.40000, 62.
3.42000, 75.
3.44000, 78.
3.46000, 78.
3.48000, 79.
3.50000, 64.
3.52000, 79.
3.54000, 89.
3.56000, 65.
3.58000, 76.
3.60000, 83.
3.62000, 72.
3.64000, 66.
3.66000, 74.
3.68000, 69.
3.70000, 81.
3.72000, 70.
3.74000, 71.
3.76000, 72.
3.78000, 62.
3.80000, 69.
3.82000, 73.
3.84000, 69.
3.86000, 69.
3.88000, 64.
3.90000, 67.
3.92000, 67.
3.94000, 58.
3.96000, 64.
3.98000, 68.
4.00000, 70.
4.02000, 66.
4.04000, 64.
4.06000, 63.
4.08000, 62.
4.10000, 55.
4.12000, 65.
4.14000, 60.
4.16000, 75.
4.18000, 57.
4.20000, 58.
4.22000, 52.
4.24000, 69.
4.26000, 58.
4.28000, 57.
4.30000, 63.
4.32000, 60.
4.34000, 63.
4.36000, 57.
4.38000, 50.
4.40000, 53.
4.42000, 64.
4.44000, 50.
4.46000, 63.
4.48000, 61.
4.50000, 63.
4.52000, 54.
4.54000, 63.
4.56000, 60.
4.58000, 57.
4.60000, 46.
4.62000, 59.
4.64000, 54.
4.66000, 59.
4.68000, 59.
4.70000, 54.
4.72000, 62.
4.74000, 47.
4.76000, 58.
4.78000, 58.
4.80000, 47.
4.82000, 51.
4.84000, 47.
4.86000, 41.
4.88000, 48.
4.90000, 48.
4.92000, 53.
4.94000, 38.
4.96000, 54.
4.98000, 52.
5.00000, 44.
5.02000, 48.
5.04000, 47.
5.06000, 55.
5.08000, 54.
5.10000, 39.
5.12000, 54.
5.14000, 52.
5.16000, 46.
5.18000, 46.
5.20000, 41.
5.22000, 45.
5.24000, 53.
5.26000, 42.
5.28000, 38.
5.30000, 40.
5.32000, 46.
5.34000, 48.
5.36000, 43.
5.38000, 52.
5.40000, 33.
5.42000, 43.
5.44000, 36.
5.46000, 38.
5.48000, 37.
5.50000, 35.
5.52000, 34.
5.54000, 46.
5.56000, 39.
5.58000, 37.
5.60000, 35.
5.62000, 46.
5.64000, 44.
5.66000, 32.
5.68000, 35.
5.70000, 39.
5.72000, 46.
5.74000, 34.
5.76000, 40.
5.78000, 32.
5.80000, 40.
5.82000, 39.
5.84000, 42.
5.86000, 41.
5.88000, 44.
5.90000, 36.
5.92000, 42.
5.94000, 42.
5.96000, 41.
5.98000, 43.
6.00000, 42.
6.02000, 48.
6.04000, 38.
6.06000, 39.
6.08000, 41.
6.10000, 33.
6.12000, 37.
6.14000, 44.
6.16000, 46.
6.18000, 37.
6.20000, 52.
6.22000, 65.
6.24000, 84.
6.26000, 152.
6.28000, 245.
6.30000, 446.
6.32000, 722.
6.34000, 1071.
6.36000, 1456.
6.38000, 1730.
6.40000, 1802.
6.42000, 1766.
6.44000, 1422.
6.46000, 1067.
6.48000, 736.
6.50000, 469.
6.52000, 255.
6.54000, 132.
6.56000, 83.
6.58000, 56.
6.60000, 38.
6.62000, 40.
6.64000, 34.
6.66000, 29.
6.68000, 33.
6.70000, 36.
6.72000, 36.
6.74000, 49.
6.76000, 44.
6.78000, 53.
6.80000, 70.
6.82000, 138.
6.84000, 190.
6.86000, 303.
6.88000, 401.
6.90000, 458.
6.92000, 519.
6.94000, 512.
6.96000, 491.
6.98000, 472.
7.00000, 403.
7.02000, 329.
7.04000, 336.
7.06000, 313.
7.08000, 257.
7.10000, 212.
7.12000, 157.
7.14000, 111.
7.16000, 72.
7.18000, 55.
7.20000, 39.
7.22000, 33.
7.24000, 38.
7.26000, 28.
7.28000, 29.
7.30000, 22.
7.32000, 24.
7.34000, 21.
7.36000, 28.
7.38000, 15.
7.40000, 19.
7.42000, 33.
7.44000, 29.
7.46000, 17.
7.48000, 30.
7.50000, 17.
7.52000, 35.
7.54000, 40.
7.56000, 40.
7.58000, 52.
7.60000, 62.
7.62000, 72.
7.64000, 96.
7.66000, 80.
7.68000, 79.
7.70000, 62.
7.72000, 51.
7.74000, 44.
7.76000, 34.
7.78000, 14.
7.80000, 13.
7.82000, 27.
7.84000, 24.
7.86000, 21.
7.88000, 29.
7.90000, 19.
7.92000, 21.
7.94000, 23.
7.96000, 20.
7.98000, 18.
8.00000, 23.
8.02000, 15.
8.04000, 14.
8.06000, 22.
8.08000, 22.
8.10000, 17.
8.12000, 23.
8.14000, 22.
8.16000, 25.
8.18000, 18.
8.20000, 16.
8.22000, 21.
8.24000, 19.
8.26000, 14.
8.28000, 16.
8.30000, 23.
8.32000, 22.
8.34000, 19.
8.36000, 25.
8.38000, 14.
8.40000, 18.
8.42000, 20.
8.44000, 15.
8.46000, 23.
8.48000, 12.
8.50000, 22.
8.52000, 18.
8.54000, 17.
8.56000, 23.
8.58000, 24.
8.60000, 21.
8.62000, 19.
8.64000, 13.
8.66000, 14.
8.68000, 12.
8.70000, 23.
8.72000, 21.
8.74000, 17.
8.76000, 22.
8.78000, 22.
8.80000, 20.
8.82000, 17.
8.84000, 16.
8.86000, 12.
8.88000, 23.
8.90000, 17.
8.92000, 14.
8.94000, 16.
8.96000, 19.
8.98000, 15.
9.00000, 17.
9.02000, 21.
9.04000, 24.
9.06000, 18.
9.08000, 16.
9.10000, 20.
9.12000, 14.
9.14000, 21.
9.16000, 28.
9.18000, 21.
9.20000, 13.
9.22000, 20.
9.24000, 18.
9.26000, 18.
9.28000, 13.
9.30000, 16.
9.32000, 13.
9.34000, 13.
9.36000, 24.
9.38000, 16.
9.40000, 19.
9.42000, 14.
9.44000, 15.
9.46000, 10.
9.48000, 13.
9.50000, 14.
9.52000, 9.
9.54000, 24.
9.56000, 11.
9.58000, 13.
9.60000, 13.
9.62000, 17.
9.64000, 13.
9.66000, 13.
9.68000, 17.
9.70000, 16.
9.72000, 13.
9.74000, 15.
9.76000, 14.
9.78000, 13.
9.80000, 17.
9.82000, 17.
9.84000, 10.
9.86000, 13.
9.88000, 13.
9.90000, 16.
9.92000, 15.
9.94000, 12.
9.96000, 18.
9.98000, 13.
10.00000, 10.
10.02000, 15.
10.04000, 17.
10.06000, 14.
10.08000, 18.
10.10000, 14.
10.12000, 14.
10.14000, 14.
10.16000, 17.
10.18000, 18.
10.20000, 8.
10.22000, 13.
10.24000, 13.
10.26000, 14.
10.28000, 13.
10.30000, 12.
10.32000, 15.
10.34000, 12.
10.36000, 12.
10.38000, 20.
10.40000, 16.
10.42000, 13.
10.44000, 13.
10.46000, 13.
10.48000, 18.
10.50000, 14.
10.52000, 13.
10.54000, 12.
10.56000, 17.
10.58000, 12.
10.60000, 16.
10.62000, 11.
10.64000, 11.
10.66000, 16.
10.68000, 16.
10.70000, 14.
10.72000, 11.
10.74000, 13.
10.76000, 7.
10.78000, 10.
10.80000, 12.
10.82000, 13.
10.84000, 14.
10.86000, 15.
10.88000, 15.
10.90000, 11.
10.92000, 11.
10.94000, 15.
10.96000, 13.
10.98000, 13.
11.00000, 9.
11.02000, 18.
11.04000, 9.
11.06000, 10.
11.08000, 12.
11.10000, 6.
11.12000, 11.
11.14000, 17.
11.16000, 13.
11.18000, 10.
11.20000, 10.
11.22000, 13.
11.24000, 17.
11.26000, 10.
11.28000, 9.
11.30000, 12.
11.32000, 9.
11.34000, 13.
11.36000, 14.
11.38000, 11.
11.40000, 8.
11.42000, 10.
11.44000, 9.
11.46000, 15.
11.48000, 12.
11.50000, 13.
11.52000, 5.
11.54000, 9.
11.56000, 10.
11.58000, 9.
11.60000, 8.
11.62000, 16.
11.64000, 9.
11.66000, 9.
11.68000, 14.
11.70000, 11.
11.72000, 10.
11.74000, 11.
11.76000, 6.
11.78000, 13.
11.80000, 10.
11.82000, 7.
11.84000, 10.
11.86000, 6.
11.88000, 8.
11.90000, 13.
11.92000, 14.
11.94000, 8.
11.96000, 10.
11.98000, 8.
12.00000, 8.
12.02000, 7.
12.04000, 8.
12.06000, 11.
12.08000, 7.
12.10000, 8.
12.12000, 15.
12.14000, 9.
12.16000, 5.
12.18000, 10.
12.20000, 10.
12.22000, 8.
12.24000, 9.
12.26000, 12.
12.28000, 5.
12.30000, 7.
12.32000, 6.
12.34000, 8.
12.36000, 8.
12.38000, 6.
12.40000, 13.
12.42000, 8.
12.44000, 10.
12.46000, 10.
12.48000, 10.
12.50000, 8.
12.52000, 4.
12.54000, 7.
12.56000, 8.
12.58000, 11.
12.60000, 7.
12.62000, 8.
12.64000, 9.
12.66000, 14.
12.68000, 6.
12.70000, 11.
12.72000, 5.
12.74000, 13.
12.76000, 8.
12.78000, 11.
12.80000, 11.
12.82000, 7.
12.84000, 10.
12.86000, 7.
12.88000, 10.
12.90000, 10.
12.92000, 11.
12.94000, 5.
12.96000, 9.
12.98000, 8.
13.00000, 9.
13.02000, 7.
13.04000, 12.
13.06000, 4.
13.08000, 7.
13.10000, 12.
13.12000, 7.
13.14000, 10.
13.16000, 11.
13.18000, 10.
13.20000, 10.
13.22000, 9.
13.24000, 4.
13.26000, 6.
13.28000, 7.
13.30000, 6.
13.32000, 7.
13.34000, 7.
13.36000, 7.
13.38000, 8.
13.40000, 8.
13.42000, 6.
13.44000, 8.
13.46000, 10.
13.48000, 11.
13.50000, 5.
13.52000, 6.
13.54000, 7.
13.56000, 5.
13.58000, 10.
13.60000, 11.
13.62000, 6.
13.64000, 7.
13.66000, 7.
13.68000, 5.
13.70000, 4.
13.72000, 6.
13.74000, 5.
13.76000, 5.
13.78000, 7.
13.80000, 5.
13.82000, 6.
13.84000, 10.
13.86000, 4.
13.88000, 5.
13.90000, 8.
13.92000, 3.
13.94000, 5.
13.96000, 7.
13.98000, 7.
14.00000, 6.
14.02000, 3.
14.04000, 8.
14.06000, 7.
14.08000, 8.
14.10000, 3.
14.12000, 5.
14.14000, 7.
14.16000, 8.
14.18000, 4.
14.20000, 8.
14.22000, 7.
14.24000, 5.
14.26000, 9.
14.28000, 9.
14.30000, 8.
14.32000, 5.
14.34000, 9.
14.36000, 6.
14.38000, 5.
14.40000, 4.
14.42000, 5.
14.44000, 4.
14.46000, 7.
14.48000, 7.
14.50000, 9.
14.52000, 9.
14.54000, 6.
14.56000, 5.
14.58000, 7.
14.60000, 10.
14.62000, 2.
14.64000, 3.
14.66000, 8.
14.68000, 3.
14.70000, 6.
14.72000, 8.
14.74000, 4.
14.76000, 4.
14.78000, 9.
14.80000, 5.
14.82000, 7.
14.84000, 5.
14.86000, 5.
14.88000, 5.
14.90000, 2.
14.92000, 7.
14.94000, 6.
14.96000, 9.
14.98000, 4.
15.00000, 5.
15.02000, 5.
15.04000, 7.
15.06000, 6.
15.08000, 9.
15.10000, 4.
15.12000, 5.
15.14000, 6.
15.16000, 9.
15.18000, 2.
15.20000, 3.
15.22000, 4.
15.24000, 5.
15.26000, 2.
15.28000, 5.
15.30000, 5.
15.32000, 6.
15.34000, 5.
15.36000, 4.
15.38000, 6.
15.40000, 4.
15.42000, 3.
15.44000, 6.
15.46000, 5.
15.48000, 4.
15.50000, 4.
15.52000, 4.
15.54000, 1.
15.56000, 5.
15.58000, 5.
15.60000, 2.
15.62000, 5.
15.64000, 3.
15.66000, 7.
15.68000, 3.
15.70000, 4.
15.72000, 6.
15.74000, 6.
15.76000, 9.
15.78000, 4.
15.80000, 5.
15.82000, 1.
15.84000, 4.
15.86000, 3.
15.88000, 4.
15.90000, 3.
15.92000, 1.
15.94000, 4.
15.96000, 4.
15.98000, 4.
16.00000, 4.
16.02000, 5.
16.04000, 2.
16.06000, 9.
16.08000, 1.
16.10000, 8.
16.12000, 1.
16.14000, 4.
16.16000, 1.
16.18000, 6.
16.20000, 2.
16.22000, 3.
16.24000, 2.
16.26000, 6.
16.28000, 2.
16.30000, 4.
16.32000, 0.
16.34000, 2.
16.36000, 3.
16.38000, 4.
16.40000, 1.
16.42000, 2.
16.44000, 0.
16.46000, 4.
16.48000, 7.
16.50000, 4.
16.52000, 2.
16.54000, 2.
16.56000, 6.
16.58000, 3.
16.60000, 3.
16.62000, 3.
16.64000, 4.
16.66000, 1.
16.68000, 3.
16.70000, 3.
16.72000, 3.
16.74000, 1.
16.76000, 0.
16.78000, 3.
16.80000, 3.
16.82000, 3.
16.84000, 1.
16.86000, 2.
16.88000, 1.
16.90000, 4.
16.92000, 4.
16.94000, 2.
16.96000, 8.
16.98000, 3.
17.00000, 3.
17.02000, 0.
17.04000, 2.
17.06000, 2.
17.08000, 2.
17.10000, 2.
17.12000, 3.
17.14000, 2.
17.16000, 2.
17.18000, 2.
17.20000, 3.
17.22000, 3.
17.24000, 0.
17.26000, 1.
17.28000, 1.
17.30000, 3.
17.32000, 1.
17.34000, 4.
17.36000, 0.
17.38000, 0.
17.40000, 3.
17.42000, 4.
17.44000, 1.
17.46000, 0.
17.48000, 3.
17.50000, 2.
17.52000, 2.
17.54000, 4.
17.56000, 3.
17.58000, 1.
17.60000, 5.
17.62000, 4.
17.64000, 1.
17.66000, 2.
17.68000, 1.
17.70000, 3.
17.72000, 1.
17.74000, 2.
17.76000, 2.
17.78000, 1.
17.80000, 1.
17.82000, 1.
17.84000, 2.
17.86000, 1.
17.88000, 2.
17.90000, 1.
17.92000, 1.
17.94000, 3.
17.96000, 0.
17.98000, 2.
18.00000, 3.
18.02000, 0.
18.04000, 1.
18.06000, 0.
18.08000, 1.
18.10000, 1.
18.12000, 4.
18.14000, 2.
18.16000, 2.
18.18000, 3.
18.20000, 0.
18.22000, 1.
18.24000, 0.
18.26000, 1.
18.28000, 0.
18.30000, 2.
18.32000, 3.
18.34000, 0.
18.36000, 0.
18.38000, 0.
18.40000, 1.
18.42000, 2.
18.44000, 1.
18.46000, 1.
18.48000, 1.
18.50000, 1.
18.52000, 2.
18.54000, 0.
18.56000, 1.
18.58000, 0.
18.60000, 2.
18.62000, 1.
18.64000, 0.
18.66000, 0.
18.68000, 2.
18.70000, 1.
18.72000, 0.
18.74000, 2.
18.76000, 1.
18.78000, 1.
18.80000, 1.
18.82000, 2.
18.84000, 0.
18.86000, 1.
18.88000, 1.
18.90000, 1.
18.92000, 0.
18.94000, 0.
18.96000, 0.
18.98000, 0.
19.00000, 0.
19.02000, 0.
19.04000, 0.
19.06000, 0.
19.08000, 1.
19.10000, 1.
19.12000, 1.
19.14000, 0.
19.16000, 0.
19.18000, 0.
19.20000, 1.
19.22000, 1.
19.24000, 1.
19.26000, 0.
19.28000, 1.
19.30000, 0.
19.32000, 1.
19.34000, 0.
19.36000, 0.
19.38000, 0.
19.40000, 1.
19.42000, 0.
19.44000, 0.
19.46000, 0.
19.48000, 0.
19.50000, 0.
19.52000, 1.
19.54000, 0.
19.56000, 0.
19.58000, 0.
19.60000, 0.
19.62000, 0.
19.64000, 0.
19.66000, 0.
19.68000, 0.
19.70000, 0.
19.72000, 0.
19.74000, 0.
19.76000, 0.
19.78000, 0.
19.80000, 0.
19.82000, 0.
19.84000, 0.
19.86000, 0.
19.88000, 0.
19.90000, 0.
19.92000, 0.
19.94000, 0.
19.96000, 0.
19.98000, 0.
20.00000, 0.
20.02000, 0.
20.04000, 0.
20.06000, 0.
20.08000, 0.
20.10000, 0.
20.12000, 0.
20.14000, 0.
20.16000, 0.
20.18000, 0.
20.20000, 0.
20.22000, 0.
20.24000, 0.
20.26000, 0.
20.27000, 0.
#ENDOFDATA   :