File: data/monolayers/nanoparticles/Ac_CoFe_C/edx/data/AH11_2.txt
#FORMAT      : EMSA/MAS Spectral Data File
#VERSION     : 1.0
#TITLE       : Spectrum 1
#DATE        : 04-DEC-2018
#TIME        : 10:20
#OWNER       :
#NPOINTS     : 2048.
#NCOLUMNS    : 1.
#XUNITS      : keV
#YUNITS      : counts
#DATATYPE    : XY
#XPERCHAN    : 0.0100000
#OFFSET      : -0.200000
#SIGNALTYPE  : EDS
#CHOFFSET    : 20.0000
#LIVETIME    : 100
#REALTIME    : 112.747
#BEAMKV      : 20.0000
#PROBECUR    : 0.000000
#MAGCAM      : 1390.00
#XTILTSTGE   : 0.0
#AZIMANGLE   : 0.0
#ELEVANGLE   : 35.0
#XPOSITION mm: 0.0000
#YPOSITION mm: 0.0000
#ZPOSITION mm: 0.0000
##OXINSTPT   : 5
##OXINSTSTROB: 49.11
##OXINSTELEMS: 6,8,11,14,26,27
##OXINSTLABEL: 26, 6.404, Fe
##OXINSTLABEL: 26, 7.058, Fe
##OXINSTLABEL: 26, 0.705, Fe
##OXINSTLABEL: 26, 0.628, Fe
##OXINSTLABEL: 8, 0.525, O
##OXINSTLABEL: 14, 1.740, Si
##OXINSTLABEL: 27, 6.930, Co
##OXINSTLABEL: 27, 7.650, Co
##OXINSTLABEL: 27, 0.776, Co
##OXINSTLABEL: 27, 0.694, Co
##OXINSTLABEL: 27, 0.678, Co
##OXINSTLABEL: 6, 0.277, C
##OXINSTLABEL: 11, 1.041, Na
#SPECTRUM    : Spectral Data Starts Here
-0.20000, 0.
-0.18000, 0.
-0.16000, 0.
-0.14000, 1.
-0.12000, 0.
-0.10000, 0.
-0.08000, 1.
-0.06000, 38.
-0.04000, 458.
-0.02000, 2150.
0.00000, 4849.
0.02000, 5426.
0.04000, 2973.
0.06000, 766.
0.08000, 106.
0.10000, 12.
0.12000, 14.
0.14000, 18.
0.16000, 34.
0.18000, 41.
0.20000, 61.
0.22000, 202.
0.24000, 561.
0.26000, 1009.
0.28000, 1069.
0.30000, 650.
0.32000, 196.
0.34000, 46.
0.36000, 21.
0.38000, 28.
0.40000, 33.
0.42000, 36.
0.44000, 66.
0.46000, 174.
0.48000, 483.
0.50000, 1050.
0.52000, 1448.
0.54000, 1167.
0.56000, 565.
0.58000, 265.
0.60000, 172.
0.62000, 174.
0.64000, 195.
0.66000, 269.
0.68000, 465.
0.70000, 624.
0.72000, 574.
0.74000, 397.
0.76000, 280.
0.78000, 245.
0.80000, 177.
0.82000, 125.
0.84000, 74.
0.86000, 38.
0.88000, 31.
0.90000, 39.
0.92000, 44.
0.94000, 41.
0.96000, 41.
0.98000, 47.
1.00000, 50.
1.02000, 77.
1.04000, 75.
1.06000, 82.
1.08000, 65.
1.10000, 71.
1.12000, 61.
1.14000, 54.
1.16000, 73.
1.18000, 58.
1.20000, 69.
1.22000, 73.
1.24000, 72.
1.26000, 74.
1.28000, 71.
1.30000, 73.
1.32000, 79.
1.34000, 72.
1.36000, 72.
1.38000, 92.
1.40000, 92.
1.42000, 69.
1.44000, 95.
1.46000, 96.
1.48000, 101.
1.50000, 91.
1.52000, 89.
1.54000, 98.
1.56000, 102.
1.58000, 86.
1.60000, 98.
1.62000, 89.
1.64000, 108.
1.66000, 106.
1.68000, 121.
1.70000, 129.
1.72000, 189.
1.74000, 221.
1.76000, 195.
1.78000, 166.
1.80000, 140.
1.82000, 107.
1.84000, 109.
1.86000, 99.
1.88000, 92.
1.90000, 103.
1.92000, 112.
1.94000, 101.
1.96000, 100.
1.98000, 109.
2.00000, 97.
2.02000, 107.
2.04000, 110.
2.06000, 100.
2.08000, 104.
2.10000, 111.
2.12000, 101.
2.14000, 95.
2.16000, 104.
2.18000, 96.
2.20000, 94.
2.22000, 99.
2.24000, 86.
2.26000, 103.
2.28000, 106.
2.30000, 106.
2.32000, 114.
2.34000, 90.
2.36000, 104.
2.38000, 95.
2.40000, 99.
2.42000, 106.
2.44000, 82.
2.46000, 101.
2.48000, 87.
2.50000, 86.
2.52000, 96.
2.54000, 98.
2.56000, 107.
2.58000, 92.
2.60000, 89.
2.62000, 96.
2.64000, 103.
2.66000, 98.
2.68000, 93.
2.70000, 92.
2.72000, 87.
2.74000, 102.
2.76000, 80.
2.78000, 85.
2.80000, 81.
2.82000, 94.
2.84000, 82.
2.86000, 80.
2.88000, 79.
2.90000, 87.
2.92000, 86.
2.94000, 80.
2.96000, 82.
2.98000, 90.
3.00000, 86.
3.02000, 86.
3.04000, 89.
3.06000, 90.
3.08000, 75.
3.10000, 94.
3.12000, 85.
3.14000, 81.
3.16000, 82.
3.18000, 72.
3.20000, 75.
3.22000, 78.
3.24000, 80.
3.26000, 68.
3.28000, 89.
3.30000, 82.
3.32000, 75.
3.34000, 88.
3.36000, 74.
3.38000, 74.
3.40000, 68.
3.42000, 62.
3.44000, 67.
3.46000, 82.
3.48000, 75.
3.50000, 76.
3.52000, 72.
3.54000, 75.
3.56000, 73.
3.58000, 70.
3.60000, 77.
3.62000, 77.
3.64000, 60.
3.66000, 67.
3.68000, 59.
3.70000, 69.
3.72000, 62.
3.74000, 63.
3.76000, 69.
3.78000, 70.
3.80000, 62.
3.82000, 72.
3.84000, 59.
3.86000, 65.
3.88000, 65.
3.90000, 66.
3.92000, 64.
3.94000, 54.
3.96000, 58.
3.98000, 46.
4.00000, 56.
4.02000, 49.
4.04000, 57.
4.06000, 62.
4.08000, 67.
4.10000, 58.
4.12000, 64.
4.14000, 54.
4.16000, 64.
4.18000, 48.
4.20000, 55.
4.22000, 59.
4.24000, 65.
4.26000, 58.
4.28000, 55.
4.30000, 64.
4.32000, 56.
4.34000, 57.
4.36000, 55.
4.38000, 56.
4.40000, 55.
4.42000, 60.
4.44000, 59.
4.46000, 47.
4.48000, 53.
4.50000, 44.
4.52000, 52.
4.54000, 49.
4.56000, 51.
4.58000, 46.
4.60000, 63.
4.62000, 52.
4.64000, 60.
4.66000, 71.
4.68000, 52.
4.70000, 58.
4.72000, 48.
4.74000, 54.
4.76000, 36.
4.78000, 54.
4.80000, 48.
4.82000, 50.
4.84000, 42.
4.86000, 56.
4.88000, 44.
4.90000, 61.
4.92000, 47.
4.94000, 39.
4.96000, 45.
4.98000, 44.
5.00000, 51.
5.02000, 49.
5.04000, 45.
5.06000, 45.
5.08000, 43.
5.10000, 49.
5.12000, 52.
5.14000, 43.
5.16000, 55.
5.18000, 45.
5.20000, 46.
5.22000, 42.
5.24000, 46.
5.26000, 41.
5.28000, 47.
5.30000, 53.
5.32000, 45.
5.34000, 43.
5.36000, 46.
5.38000, 56.
5.40000, 45.
5.42000, 35.
5.44000, 47.
5.46000, 40.
5.48000, 34.
5.50000, 40.
5.52000, 36.
5.54000, 35.
5.56000, 38.
5.58000, 49.
5.60000, 39.
5.62000, 27.
5.64000, 37.
5.66000, 39.
5.68000, 40.
5.70000, 40.
5.72000, 37.
5.74000, 40.
5.76000, 34.
5.78000, 35.
5.80000, 49.
5.82000, 34.
5.84000, 36.
5.86000, 39.
5.88000, 44.
5.90000, 35.
5.92000, 28.
5.94000, 32.
5.96000, 34.
5.98000, 32.
6.00000, 40.
6.02000, 36.
6.04000, 30.
6.06000, 42.
6.08000, 35.
6.10000, 40.
6.12000, 30.
6.14000, 34.
6.16000, 43.
6.18000, 47.
6.20000, 55.
6.22000, 47.
6.24000, 85.
6.26000, 129.
6.28000, 261.
6.30000, 418.
6.32000, 675.
6.34000, 1000.
6.36000, 1372.
6.38000, 1626.
6.40000, 1776.
6.42000, 1682.
6.44000, 1348.
6.46000, 1006.
6.48000, 653.
6.50000, 423.
6.52000, 236.
6.54000, 128.
6.56000, 70.
6.58000, 43.
6.60000, 27.
6.62000, 43.
6.64000, 37.
6.66000, 40.
6.68000, 34.
6.70000, 33.
6.72000, 30.
6.74000, 32.
6.76000, 40.
6.78000, 67.
6.80000, 64.
6.82000, 141.
6.84000, 190.
6.86000, 250.
6.88000, 351.
6.90000, 426.
6.92000, 479.
6.94000, 465.
6.96000, 464.
6.98000, 418.
7.00000, 378.
7.02000, 335.
7.04000, 307.
7.06000, 274.
7.08000, 244.
7.10000, 179.
7.12000, 138.
7.14000, 98.
7.16000, 57.
7.18000, 70.
7.20000, 36.
7.22000, 33.
7.24000, 36.
7.26000, 24.
7.28000, 22.
7.30000, 32.
7.32000, 16.
7.34000, 27.
7.36000, 25.
7.38000, 29.
7.40000, 17.
7.42000, 23.
7.44000, 27.
7.46000, 19.
7.48000, 23.
7.50000, 27.
7.52000, 26.
7.54000, 41.
7.56000, 57.
7.58000, 49.
7.60000, 58.
7.62000, 68.
7.64000, 60.
7.66000, 77.
7.68000, 68.
7.70000, 70.
7.72000, 38.
7.74000, 32.
7.76000, 29.
7.78000, 34.
7.80000, 24.
7.82000, 18.
7.84000, 26.
7.86000, 20.
7.88000, 28.
7.90000, 21.
7.92000, 16.
7.94000, 15.
7.96000, 24.
7.98000, 22.
8.00000, 18.
8.02000, 18.
8.04000, 23.
8.06000, 19.
8.08000, 12.
8.10000, 21.
8.12000, 15.
8.14000, 18.
8.16000, 16.
8.18000, 13.
8.20000, 18.
8.22000, 24.
8.24000, 19.
8.26000, 13.
8.28000, 16.
8.30000, 20.
8.32000, 19.
8.34000, 22.
8.36000, 21.
8.38000, 21.
8.40000, 20.
8.42000, 19.
8.44000, 19.
8.46000, 22.
8.48000, 16.
8.50000, 22.
8.52000, 18.
8.54000, 18.
8.56000, 16.
8.58000, 18.
8.60000, 18.
8.62000, 19.
8.64000, 17.
8.66000, 12.
8.68000, 18.
8.70000, 17.
8.72000, 15.
8.74000, 22.
8.76000, 14.
8.78000, 19.
8.80000, 17.
8.82000, 16.
8.84000, 18.
8.86000, 15.
8.88000, 18.
8.90000, 14.
8.92000, 21.
8.94000, 21.
8.96000, 14.
8.98000, 15.
9.00000, 15.
9.02000, 16.
9.04000, 18.
9.06000, 14.
9.08000, 15.
9.10000, 13.
9.12000, 17.
9.14000, 17.
9.16000, 17.
9.18000, 14.
9.20000, 13.
9.22000, 21.
9.24000, 14.
9.26000, 19.
9.28000, 23.
9.30000, 21.
9.32000, 17.
9.34000, 15.
9.36000, 15.
9.38000, 13.
9.40000, 14.
9.42000, 12.
9.44000, 11.
9.46000, 11.
9.48000, 20.
9.50000, 11.
9.52000, 13.
9.54000, 16.
9.56000, 18.
9.58000, 20.
9.60000, 22.
9.62000, 12.
9.64000, 12.
9.66000, 17.
9.68000, 12.
9.70000, 18.
9.72000, 17.
9.74000, 13.
9.76000, 14.
9.78000, 14.
9.80000, 14.
9.82000, 13.
9.84000, 16.
9.86000, 14.
9.88000, 21.
9.90000, 14.
9.92000, 12.
9.94000, 14.
9.96000, 15.
9.98000, 12.
10.00000, 16.
10.02000, 18.
10.04000, 13.
10.06000, 16.
10.08000, 14.
10.10000, 9.
10.12000, 11.
10.14000, 16.
10.16000, 12.
10.18000, 12.
10.20000, 13.
10.22000, 13.
10.24000, 13.
10.26000, 16.
10.28000, 14.
10.30000, 14.
10.32000, 6.
10.34000, 12.
10.36000, 13.
10.38000, 10.
10.40000, 13.
10.42000, 11.
10.44000, 10.
10.46000, 16.
10.48000, 14.
10.50000, 12.
10.52000, 8.
10.54000, 14.
10.56000, 13.
10.58000, 10.
10.60000, 10.
10.62000, 15.
10.64000, 11.
10.66000, 10.
10.68000, 17.
10.70000, 9.
10.72000, 11.
10.74000, 8.
10.76000, 13.
10.78000, 12.
10.80000, 13.
10.82000, 10.
10.84000, 9.
10.86000, 12.
10.88000, 5.
10.90000, 14.
10.92000, 12.
10.94000, 13.
10.96000, 11.
10.98000, 12.
11.00000, 12.
11.02000, 12.
11.04000, 9.
11.06000, 12.
11.08000, 14.
11.10000, 13.
11.12000, 10.
11.14000, 7.
11.16000, 13.
11.18000, 10.
11.20000, 10.
11.22000, 10.
11.24000, 11.
11.26000, 14.
11.28000, 9.
11.30000, 11.
11.32000, 9.
11.34000, 9.
11.36000, 17.
11.38000, 10.
11.40000, 8.
11.42000, 5.
11.44000, 8.
11.46000, 11.
11.48000, 12.
11.50000, 11.
11.52000, 8.
11.54000, 6.
11.56000, 8.
11.58000, 7.
11.60000, 11.
11.62000, 6.
11.64000, 14.
11.66000, 10.
11.68000, 10.
11.70000, 14.
11.72000, 11.
11.74000, 9.
11.76000, 9.
11.78000, 8.
11.80000, 12.
11.82000, 10.
11.84000, 9.
11.86000, 12.
11.88000, 11.
11.90000, 10.
11.92000, 13.
11.94000, 8.
11.96000, 9.
11.98000, 6.
12.00000, 15.
12.02000, 11.
12.04000, 11.
12.06000, 4.
12.08000, 7.
12.10000, 12.
12.12000, 6.
12.14000, 10.
12.16000, 9.
12.18000, 10.
12.20000, 10.
12.22000, 7.
12.24000, 11.
12.26000, 7.
12.28000, 8.
12.30000, 9.
12.32000, 9.
12.34000, 9.
12.36000, 12.
12.38000, 10.
12.40000, 12.
12.42000, 7.
12.44000, 6.
12.46000, 6.
12.48000, 5.
12.50000, 5.
12.52000, 10.
12.54000, 6.
12.56000, 5.
12.58000, 9.
12.60000, 9.
12.62000, 11.
12.64000, 5.
12.66000, 8.
12.68000, 7.
12.70000, 7.
12.72000, 10.
12.74000, 9.
12.76000, 10.
12.78000, 6.
12.80000, 9.
12.82000, 6.
12.84000, 5.
12.86000, 8.
12.88000, 6.
12.90000, 6.
12.92000, 6.
12.94000, 8.
12.96000, 6.
12.98000, 5.
13.00000, 10.
13.02000, 7.
13.04000, 10.
13.06000, 8.
13.08000, 6.
13.10000, 8.
13.12000, 7.
13.14000, 9.
13.16000, 9.
13.18000, 8.
13.20000, 5.
13.22000, 5.
13.24000, 8.
13.26000, 8.
13.28000, 9.
13.30000, 10.
13.32000, 5.
13.34000, 4.
13.36000, 7.
13.38000, 6.
13.40000, 9.
13.42000, 8.
13.44000, 10.
13.46000, 6.
13.48000, 10.
13.50000, 9.
13.52000, 10.
13.54000, 9.
13.56000, 4.
13.58000, 8.
13.60000, 5.
13.62000, 8.
13.64000, 4.
13.66000, 6.
13.68000, 7.
13.70000, 6.
13.72000, 8.
13.74000, 5.
13.76000, 10.
13.78000, 8.
13.80000, 6.
13.82000, 4.
13.84000, 5.
13.86000, 5.
13.88000, 2.
13.90000, 6.
13.92000, 6.
13.94000, 9.
13.96000, 3.
13.98000, 6.
14.00000, 4.
14.02000, 7.
14.04000, 5.
14.06000, 6.
14.08000, 7.
14.10000, 5.
14.12000, 6.
14.14000, 6.
14.16000, 5.
14.18000, 3.
14.20000, 1.
14.22000, 6.
14.24000, 4.
14.26000, 3.
14.28000, 7.
14.30000, 4.
14.32000, 7.
14.34000, 2.
14.36000, 2.
14.38000, 5.
14.40000, 4.
14.42000, 7.
14.44000, 4.
14.46000, 4.
14.48000, 6.
14.50000, 7.
14.52000, 3.
14.54000, 5.
14.56000, 8.
14.58000, 6.
14.60000, 3.
14.62000, 6.
14.64000, 5.
14.66000, 3.
14.68000, 6.
14.70000, 5.
14.72000, 5.
14.74000, 3.
14.76000, 8.
14.78000, 8.
14.80000, 1.
14.82000, 3.
14.84000, 4.
14.86000, 4.
14.88000, 2.
14.90000, 8.
14.92000, 2.
14.94000, 10.
14.96000, 5.
14.98000, 7.
15.00000, 5.
15.02000, 6.
15.04000, 6.
15.06000, 3.
15.08000, 3.
15.10000, 4.
15.12000, 6.
15.14000, 3.
15.16000, 7.
15.18000, 7.
15.20000, 2.
15.22000, 5.
15.24000, 4.
15.26000, 4.
15.28000, 4.
15.30000, 1.
15.32000, 2.
15.34000, 9.
15.36000, 8.
15.38000, 3.
15.40000, 4.
15.42000, 5.
15.44000, 5.
15.46000, 4.
15.48000, 6.
15.50000, 3.
15.52000, 8.
15.54000, 6.
15.56000, 2.
15.58000, 5.
15.60000, 2.
15.62000, 3.
15.64000, 4.
15.66000, 1.
15.68000, 4.
15.70000, 4.
15.72000, 6.
15.74000, 3.
15.76000, 2.
15.78000, 0.
15.80000, 5.
15.82000, 2.
15.84000, 3.
15.86000, 2.
15.88000, 5.
15.90000, 5.
15.92000, 6.
15.94000, 3.
15.96000, 3.
15.98000, 2.
16.00000, 4.
16.02000, 6.
16.04000, 2.
16.06000, 4.
16.08000, 5.
16.10000, 4.
16.12000, 5.
16.14000, 0.
16.16000, 4.
16.18000, 2.
16.20000, 0.
16.22000, 3.
16.24000, 3.
16.26000, 3.
16.28000, 3.
16.30000, 4.
16.32000, 2.
16.34000, 2.
16.36000, 3.
16.38000, 2.
16.40000, 2.
16.42000, 1.
16.44000, 2.
16.46000, 4.
16.48000, 1.
16.50000, 3.
16.52000, 2.
16.54000, 4.
16.56000, 6.
16.58000, 2.
16.60000, 2.
16.62000, 0.
16.64000, 4.
16.66000, 3.
16.68000, 4.
16.70000, 1.
16.72000, 1.
16.74000, 3.
16.76000, 4.
16.78000, 1.
16.80000, 0.
16.82000, 3.
16.84000, 1.
16.86000, 0.
16.88000, 3.
16.90000, 2.
16.92000, 6.
16.94000, 1.
16.96000, 7.
16.98000, 1.
17.00000, 1.
17.02000, 3.
17.04000, 1.
17.06000, 5.
17.08000, 5.
17.10000, 8.
17.12000, 1.
17.14000, 4.
17.16000, 5.
17.18000, 1.
17.20000, 2.
17.22000, 0.
17.24000, 1.
17.26000, 1.
17.28000, 2.
17.30000, 0.
17.32000, 1.
17.34000, 1.
17.36000, 1.
17.38000, 2.
17.40000, 1.
17.42000, 2.
17.44000, 0.
17.46000, 3.
17.48000, 4.
17.50000, 3.
17.52000, 0.
17.54000, 1.
17.56000, 1.
17.58000, 0.
17.60000, 2.
17.62000, 2.
17.64000, 1.
17.66000, 1.
17.68000, 1.
17.70000, 2.
17.72000, 1.
17.74000, 0.
17.76000, 0.
17.78000, 3.
17.80000, 1.
17.82000, 1.
17.84000, 1.
17.86000, 0.
17.88000, 1.
17.90000, 1.
17.92000, 3.
17.94000, 2.
17.96000, 4.
17.98000, 1.
18.00000, 1.
18.02000, 1.
18.04000, 1.
18.06000, 2.
18.08000, 1.
18.10000, 0.
18.12000, 0.
18.14000, 3.
18.16000, 0.
18.18000, 0.
18.20000, 1.
18.22000, 1.
18.24000, 0.
18.26000, 2.
18.28000, 0.
18.30000, 0.
18.32000, 1.
18.34000, 0.
18.36000, 1.
18.38000, 0.
18.40000, 0.
18.42000, 0.
18.44000, 2.
18.46000, 2.
18.48000, 1.
18.50000, 0.
18.52000, 1.
18.54000, 1.
18.56000, 1.
18.58000, 1.
18.60000, 1.
18.62000, 0.
18.64000, 0.
18.66000, 1.
18.68000, 2.
18.70000, 0.
18.72000, 1.
18.74000, 1.
18.76000, 0.
18.78000, 0.
18.80000, 0.
18.82000, 1.
18.84000, 2.
18.86000, 1.
18.88000, 1.
18.90000, 0.
18.92000, 0.
18.94000, 0.
18.96000, 0.
18.98000, 0.
19.00000, 0.
19.02000, 1.
19.04000, 0.
19.06000, 1.
19.08000, 0.
19.10000, 0.
19.12000, 0.
19.14000, 0.
19.16000, 0.
19.18000, 0.
19.20000, 0.
19.22000, 0.
19.24000, 0.
19.26000, 1.
19.28000, 0.
19.30000, 0.
19.32000, 0.
19.34000, 0.
19.36000, 0.
19.38000, 0.
19.40000, 0.
19.42000, 0.
19.44000, 0.
19.46000, 0.
19.48000, 0.
19.50000, 0.
19.52000, 0.
19.54000, 0.
19.56000, 0.
19.58000, 0.
19.60000, 0.
19.62000, 0.
19.64000, 0.
19.66000, 0.
19.68000, 0.
19.70000, 0.
19.72000, 0.
19.74000, 0.
19.76000, 0.
19.78000, 0.
19.80000, 0.
19.82000, 0.
19.84000, 0.
19.86000, 0.
19.88000, 0.
19.90000, 0.
19.92000, 0.
19.94000, 0.
19.96000, 0.
19.98000, 0.
20.00000, 0.
20.02000, 0.
20.04000, 0.
20.06000, 0.
20.08000, 0.
20.10000, 0.
20.12000, 0.
20.14000, 0.
20.16000, 0.
20.18000, 0.
20.20000, 0.
20.22000, 0.
20.24000, 0.
20.26000, 0.
20.27000, 0.
#ENDOFDATA   :