File: data/monolayers/nanoparticles/Ac_CoFe_C/edx/data/AH11_3.txt
#FORMAT      : EMSA/MAS Spectral Data File
#VERSION     : 1.0
#TITLE       : Spectrum 1
#DATE        : 04-DEC-2018
#TIME        : 10:23
#OWNER       :
#NPOINTS     : 2048.
#NCOLUMNS    : 1.
#XUNITS      : keV
#YUNITS      : counts
#DATATYPE    : XY
#XPERCHAN    : 0.0100000
#OFFSET      : -0.200000
#SIGNALTYPE  : EDS
#CHOFFSET    : 20.0000
#LIVETIME    : 100
#REALTIME    : 118.365
#BEAMKV      : 20.0000
#PROBECUR    : 0.000000
#MAGCAM      : 1390.00
#XTILTSTGE   : 0.0
#AZIMANGLE   : 0.0
#ELEVANGLE   : 35.0
#XPOSITION mm: 0.0000
#YPOSITION mm: 0.0000
#ZPOSITION mm: 0.0000
##OXINSTPT   : 5
##OXINSTSTROB: 50.14
##OXINSTELEMS: 6,8,14,26,27
##OXINSTLABEL: 8, 0.525, O
##OXINSTLABEL: 14, 1.740, Si
##OXINSTLABEL: 26, 6.404, Fe
##OXINSTLABEL: 26, 7.058, Fe
##OXINSTLABEL: 26, 0.705, Fe
##OXINSTLABEL: 26, 0.628, Fe
##OXINSTLABEL: 27, 6.930, Co
##OXINSTLABEL: 27, 7.650, Co
##OXINSTLABEL: 27, 0.776, Co
##OXINSTLABEL: 27, 0.694, Co
##OXINSTLABEL: 27, 0.678, Co
##OXINSTLABEL: 6, 0.277, C
#SPECTRUM    : Spectral Data Starts Here
-0.20000, 0.
-0.18000, 5.
-0.16000, 7.
-0.14000, 14.
-0.12000, 31.
-0.10000, 56.
-0.08000, 101.
-0.06000, 290.
-0.04000, 974.
-0.02000, 3249.
0.00000, 6717.
0.02000, 7727.
0.04000, 5044.
0.06000, 2272.
0.08000, 1049.
0.10000, 655.
0.12000, 467.
0.14000, 421.
0.16000, 412.
0.18000, 302.
0.20000, 254.
0.22000, 331.
0.24000, 769.
0.26000, 1370.
0.28000, 1501.
0.30000, 876.
0.32000, 332.
0.34000, 96.
0.36000, 37.
0.38000, 40.
0.40000, 37.
0.42000, 71.
0.44000, 100.
0.46000, 197.
0.48000, 591.
0.50000, 1161.
0.52000, 1671.
0.54000, 1341.
0.56000, 696.
0.58000, 313.
0.60000, 215.
0.62000, 239.
0.64000, 259.
0.66000, 352.
0.68000, 543.
0.70000, 713.
0.72000, 695.
0.74000, 486.
0.76000, 387.
0.78000, 296.
0.80000, 249.
0.82000, 155.
0.84000, 90.
0.86000, 59.
0.88000, 48.
0.90000, 45.
0.92000, 41.
0.94000, 55.
0.96000, 54.
0.98000, 54.
1.00000, 50.
1.02000, 63.
1.04000, 85.
1.06000, 77.
1.08000, 64.
1.10000, 67.
1.12000, 69.
1.14000, 52.
1.16000, 68.
1.18000, 70.
1.20000, 65.
1.22000, 62.
1.24000, 71.
1.26000, 74.
1.28000, 76.
1.30000, 82.
1.32000, 73.
1.34000, 71.
1.36000, 92.
1.38000, 84.
1.40000, 85.
1.42000, 89.
1.44000, 95.
1.46000, 109.
1.48000, 102.
1.50000, 97.
1.52000, 93.
1.54000, 111.
1.56000, 107.
1.58000, 102.
1.60000, 106.
1.62000, 108.
1.64000, 104.
1.66000, 126.
1.68000, 162.
1.70000, 207.
1.72000, 286.
1.74000, 321.
1.76000, 323.
1.78000, 255.
1.80000, 192.
1.82000, 127.
1.84000, 131.
1.86000, 121.
1.88000, 110.
1.90000, 103.
1.92000, 119.
1.94000, 109.
1.96000, 110.
1.98000, 106.
2.00000, 97.
2.02000, 101.
2.04000, 111.
2.06000, 103.
2.08000, 95.
2.10000, 98.
2.12000, 101.
2.14000, 97.
2.16000, 106.
2.18000, 97.
2.20000, 110.
2.22000, 105.
2.24000, 109.
2.26000, 103.
2.28000, 103.
2.30000, 109.
2.32000, 106.
2.34000, 97.
2.36000, 117.
2.38000, 111.
2.40000, 99.
2.42000, 95.
2.44000, 106.
2.46000, 108.
2.48000, 100.
2.50000, 114.
2.52000, 87.
2.54000, 112.
2.56000, 104.
2.58000, 97.
2.60000, 104.
2.62000, 104.
2.64000, 95.
2.66000, 101.
2.68000, 99.
2.70000, 98.
2.72000, 104.
2.74000, 87.
2.76000, 104.
2.78000, 102.
2.80000, 107.
2.82000, 80.
2.84000, 89.
2.86000, 96.
2.88000, 81.
2.90000, 87.
2.92000, 86.
2.94000, 93.
2.96000, 92.
2.98000, 97.
3.00000, 92.
3.02000, 88.
3.04000, 97.
3.06000, 93.
3.08000, 92.
3.10000, 81.
3.12000, 81.
3.14000, 97.
3.16000, 94.
3.18000, 71.
3.20000, 78.
3.22000, 85.
3.24000, 83.
3.26000, 76.
3.28000, 82.
3.30000, 79.
3.32000, 78.
3.34000, 76.
3.36000, 72.
3.38000, 95.
3.40000, 93.
3.42000, 80.
3.44000, 83.
3.46000, 73.
3.48000, 74.
3.50000, 79.
3.52000, 82.
3.54000, 80.
3.56000, 71.
3.58000, 79.
3.60000, 59.
3.62000, 80.
3.64000, 76.
3.66000, 71.
3.68000, 95.
3.70000, 71.
3.72000, 62.
3.74000, 76.
3.76000, 70.
3.78000, 73.
3.80000, 71.
3.82000, 83.
3.84000, 85.
3.86000, 83.
3.88000, 75.
3.90000, 73.
3.92000, 68.
3.94000, 69.
3.96000, 68.
3.98000, 66.
4.00000, 73.
4.02000, 67.
4.04000, 66.
4.06000, 58.
4.08000, 68.
4.10000, 68.
4.12000, 75.
4.14000, 59.
4.16000, 65.
4.18000, 64.
4.20000, 56.
4.22000, 65.
4.24000, 60.
4.26000, 71.
4.28000, 55.
4.30000, 60.
4.32000, 63.
4.34000, 51.
4.36000, 58.
4.38000, 55.
4.40000, 55.
4.42000, 62.
4.44000, 61.
4.46000, 49.
4.48000, 54.
4.50000, 65.
4.52000, 52.
4.54000, 51.
4.56000, 62.
4.58000, 53.
4.60000, 72.
4.62000, 59.
4.64000, 48.
4.66000, 67.
4.68000, 59.
4.70000, 69.
4.72000, 64.
4.74000, 48.
4.76000, 56.
4.78000, 48.
4.80000, 61.
4.82000, 54.
4.84000, 64.
4.86000, 58.
4.88000, 50.
4.90000, 53.
4.92000, 56.
4.94000, 55.
4.96000, 44.
4.98000, 47.
5.00000, 64.
5.02000, 46.
5.04000, 55.
5.06000, 50.
5.08000, 46.
5.10000, 46.
5.12000, 36.
5.14000, 62.
5.16000, 49.
5.18000, 46.
5.20000, 52.
5.22000, 50.
5.24000, 38.
5.26000, 52.
5.28000, 46.
5.30000, 39.
5.32000, 42.
5.34000, 43.
5.36000, 44.
5.38000, 40.
5.40000, 36.
5.42000, 46.
5.44000, 43.
5.46000, 40.
5.48000, 53.
5.50000, 55.
5.52000, 40.
5.54000, 36.
5.56000, 40.
5.58000, 40.
5.60000, 38.
5.62000, 51.
5.64000, 41.
5.66000, 45.
5.68000, 49.
5.70000, 35.
5.72000, 39.
5.74000, 33.
5.76000, 41.
5.78000, 40.
5.80000, 36.
5.82000, 34.
5.84000, 36.
5.86000, 42.
5.88000, 44.
5.90000, 26.
5.92000, 39.
5.94000, 35.
5.96000, 41.
5.98000, 38.
6.00000, 41.
6.02000, 37.
6.04000, 42.
6.06000, 38.
6.08000, 38.
6.10000, 39.
6.12000, 42.
6.14000, 47.
6.16000, 56.
6.18000, 46.
6.20000, 54.
6.22000, 58.
6.24000, 100.
6.26000, 149.
6.28000, 242.
6.30000, 449.
6.32000, 698.
6.34000, 1076.
6.36000, 1415.
6.38000, 1776.
6.40000, 1843.
6.42000, 1712.
6.44000, 1549.
6.46000, 1136.
6.48000, 763.
6.50000, 466.
6.52000, 257.
6.54000, 159.
6.56000, 85.
6.58000, 64.
6.60000, 50.
6.62000, 45.
6.64000, 37.
6.66000, 37.
6.68000, 49.
6.70000, 42.
6.72000, 34.
6.74000, 48.
6.76000, 51.
6.78000, 65.
6.80000, 92.
6.82000, 143.
6.84000, 186.
6.86000, 254.
6.88000, 366.
6.90000, 468.
6.92000, 531.
6.94000, 521.
6.96000, 487.
6.98000, 433.
7.00000, 423.
7.02000, 353.
7.04000, 345.
7.06000, 295.
7.08000, 271.
7.10000, 229.
7.12000, 171.
7.14000, 123.
7.16000, 86.
7.18000, 51.
7.20000, 59.
7.22000, 27.
7.24000, 35.
7.26000, 28.
7.28000, 24.
7.30000, 37.
7.32000, 27.
7.34000, 15.
7.36000, 31.
7.38000, 22.
7.40000, 26.
7.42000, 35.
7.44000, 28.
7.46000, 19.
7.48000, 27.
7.50000, 37.
7.52000, 39.
7.54000, 37.
7.56000, 40.
7.58000, 74.
7.60000, 70.
7.62000, 70.
7.64000, 66.
7.66000, 89.
7.68000, 76.
7.70000, 64.
7.72000, 46.
7.74000, 25.
7.76000, 37.
7.78000, 24.
7.80000, 32.
7.82000, 23.
7.84000, 33.
7.86000, 26.
7.88000, 23.
7.90000, 18.
7.92000, 23.
7.94000, 21.
7.96000, 22.
7.98000, 24.
8.00000, 23.
8.02000, 22.
8.04000, 15.
8.06000, 16.
8.08000, 15.
8.10000, 16.
8.12000, 16.
8.14000, 22.
8.16000, 18.
8.18000, 17.
8.20000, 19.
8.22000, 23.
8.24000, 22.
8.26000, 17.
8.28000, 23.
8.30000, 16.
8.32000, 23.
8.34000, 13.
8.36000, 17.
8.38000, 15.
8.40000, 24.
8.42000, 15.
8.44000, 25.
8.46000, 24.
8.48000, 11.
8.50000, 26.
8.52000, 20.
8.54000, 17.
8.56000, 18.
8.58000, 20.
8.60000, 17.
8.62000, 25.
8.64000, 21.
8.66000, 16.
8.68000, 13.
8.70000, 20.
8.72000, 22.
8.74000, 18.
8.76000, 16.
8.78000, 20.
8.80000, 14.
8.82000, 18.
8.84000, 17.
8.86000, 15.
8.88000, 17.
8.90000, 16.
8.92000, 12.
8.94000, 16.
8.96000, 22.
8.98000, 18.
9.00000, 16.
9.02000, 11.
9.04000, 20.
9.06000, 13.
9.08000, 19.
9.10000, 20.
9.12000, 17.
9.14000, 15.
9.16000, 19.
9.18000, 17.
9.20000, 15.
9.22000, 14.
9.24000, 25.
9.26000, 20.
9.28000, 12.
9.30000, 18.
9.32000, 16.
9.34000, 16.
9.36000, 12.
9.38000, 18.
9.40000, 21.
9.42000, 15.
9.44000, 22.
9.46000, 13.
9.48000, 19.
9.50000, 11.
9.52000, 16.
9.54000, 15.
9.56000, 15.
9.58000, 14.
9.60000, 14.
9.62000, 18.
9.64000, 21.
9.66000, 14.
9.68000, 18.
9.70000, 11.
9.72000, 9.
9.74000, 18.
9.76000, 15.
9.78000, 17.
9.80000, 14.
9.82000, 13.
9.84000, 13.
9.86000, 14.
9.88000, 15.
9.90000, 13.
9.92000, 12.
9.94000, 17.
9.96000, 15.
9.98000, 13.
10.00000, 10.
10.02000, 16.
10.04000, 14.
10.06000, 14.
10.08000, 20.
10.10000, 14.
10.12000, 14.
10.14000, 21.
10.16000, 13.
10.18000, 10.
10.20000, 14.
10.22000, 18.
10.24000, 13.
10.26000, 15.
10.28000, 12.
10.30000, 11.
10.32000, 18.
10.34000, 16.
10.36000, 9.
10.38000, 16.
10.40000, 15.
10.42000, 16.
10.44000, 15.
10.46000, 12.
10.48000, 10.
10.50000, 13.
10.52000, 12.
10.54000, 6.
10.56000, 11.
10.58000, 13.
10.60000, 8.
10.62000, 17.
10.64000, 14.
10.66000, 11.
10.68000, 15.
10.70000, 13.
10.72000, 13.
10.74000, 19.
10.76000, 9.
10.78000, 10.
10.80000, 15.
10.82000, 13.
10.84000, 16.
10.86000, 11.
10.88000, 13.
10.90000, 9.
10.92000, 9.
10.94000, 11.
10.96000, 17.
10.98000, 12.
11.00000, 17.
11.02000, 8.
11.04000, 14.
11.06000, 12.
11.08000, 10.
11.10000, 16.
11.12000, 12.
11.14000, 12.
11.16000, 13.
11.18000, 11.
11.20000, 9.
11.22000, 10.
11.24000, 11.
11.26000, 10.
11.28000, 10.
11.30000, 10.
11.32000, 8.
11.34000, 13.
11.36000, 10.
11.38000, 13.
11.40000, 9.
11.42000, 9.
11.44000, 10.
11.46000, 12.
11.48000, 5.
11.50000, 10.
11.52000, 12.
11.54000, 11.
11.56000, 13.
11.58000, 13.
11.60000, 12.
11.62000, 11.
11.64000, 9.
11.66000, 9.
11.68000, 7.
11.70000, 14.
11.72000, 10.
11.74000, 10.
11.76000, 10.
11.78000, 7.
11.80000, 9.
11.82000, 9.
11.84000, 7.
11.86000, 7.
11.88000, 12.
11.90000, 8.
11.92000, 9.
11.94000, 8.
11.96000, 12.
11.98000, 13.
12.00000, 9.
12.02000, 8.
12.04000, 7.
12.06000, 12.
12.08000, 7.
12.10000, 10.
12.12000, 9.
12.14000, 10.
12.16000, 10.
12.18000, 8.
12.20000, 6.
12.22000, 11.
12.24000, 10.
12.26000, 6.
12.28000, 10.
12.30000, 7.
12.32000, 9.
12.34000, 9.
12.36000, 8.
12.38000, 7.
12.40000, 10.
12.42000, 11.
12.44000, 11.
12.46000, 7.
12.48000, 8.
12.50000, 7.
12.52000, 10.
12.54000, 10.
12.56000, 8.
12.58000, 10.
12.60000, 12.
12.62000, 5.
12.64000, 10.
12.66000, 10.
12.68000, 11.
12.70000, 5.
12.72000, 10.
12.74000, 5.
12.76000, 7.
12.78000, 9.
12.80000, 6.
12.82000, 8.
12.84000, 7.
12.86000, 12.
12.88000, 9.
12.90000, 10.
12.92000, 9.
12.94000, 6.
12.96000, 7.
12.98000, 9.
13.00000, 9.
13.02000, 7.
13.04000, 8.
13.06000, 8.
13.08000, 8.
13.10000, 9.
13.12000, 5.
13.14000, 8.
13.16000, 10.
13.18000, 7.
13.20000, 6.
13.22000, 8.
13.24000, 8.
13.26000, 8.
13.28000, 10.
13.30000, 9.
13.32000, 9.
13.34000, 8.
13.36000, 4.
13.38000, 6.
13.40000, 7.
13.42000, 9.
13.44000, 8.
13.46000, 6.
13.48000, 7.
13.50000, 7.
13.52000, 5.
13.54000, 7.
13.56000, 3.
13.58000, 7.
13.60000, 7.
13.62000, 11.
13.64000, 7.
13.66000, 9.
13.68000, 6.
13.70000, 9.
13.72000, 7.
13.74000, 8.
13.76000, 7.
13.78000, 8.
13.80000, 6.
13.82000, 9.
13.84000, 7.
13.86000, 3.
13.88000, 9.
13.90000, 8.
13.92000, 4.
13.94000, 5.
13.96000, 8.
13.98000, 8.
14.00000, 6.
14.02000, 7.
14.04000, 6.
14.06000, 4.
14.08000, 8.
14.10000, 4.
14.12000, 7.
14.14000, 9.
14.16000, 7.
14.18000, 8.
14.20000, 8.
14.22000, 5.
14.24000, 8.
14.26000, 9.
14.28000, 7.
14.30000, 2.
14.32000, 7.
14.34000, 4.
14.36000, 5.
14.38000, 5.
14.40000, 9.
14.42000, 9.
14.44000, 6.
14.46000, 7.
14.48000, 6.
14.50000, 6.
14.52000, 5.
14.54000, 8.
14.56000, 5.
14.58000, 4.
14.60000, 3.
14.62000, 6.
14.64000, 6.
14.66000, 8.
14.68000, 5.
14.70000, 8.
14.72000, 4.
14.74000, 5.
14.76000, 5.
14.78000, 3.
14.80000, 4.
14.82000, 6.
14.84000, 6.
14.86000, 7.
14.88000, 4.
14.90000, 5.
14.92000, 7.
14.94000, 5.
14.96000, 4.
14.98000, 6.
15.00000, 9.
15.02000, 6.
15.04000, 2.
15.06000, 2.
15.08000, 5.
15.10000, 3.
15.12000, 3.
15.14000, 5.
15.16000, 5.
15.18000, 4.
15.20000, 7.
15.22000, 5.
15.24000, 7.
15.26000, 5.
15.28000, 5.
15.30000, 7.
15.32000, 3.
15.34000, 7.
15.36000, 4.
15.38000, 3.
15.40000, 9.
15.42000, 2.
15.44000, 3.
15.46000, 4.
15.48000, 3.
15.50000, 4.
15.52000, 7.
15.54000, 2.
15.56000, 4.
15.58000, 6.
15.60000, 1.
15.62000, 2.
15.64000, 6.
15.66000, 2.
15.68000, 3.
15.70000, 6.
15.72000, 1.
15.74000, 1.
15.76000, 5.
15.78000, 2.
15.80000, 3.
15.82000, 3.
15.84000, 4.
15.86000, 5.
15.88000, 2.
15.90000, 4.
15.92000, 5.
15.94000, 3.
15.96000, 3.
15.98000, 7.
16.00000, 4.
16.02000, 2.
16.04000, 1.
16.06000, 5.
16.08000, 7.
16.10000, 3.
16.12000, 4.
16.14000, 6.
16.16000, 2.
16.18000, 3.
16.20000, 1.
16.22000, 3.
16.24000, 3.
16.26000, 1.
16.28000, 9.
16.30000, 3.
16.32000, 4.
16.34000, 3.
16.36000, 2.
16.38000, 1.
16.40000, 3.
16.42000, 0.
16.44000, 2.
16.46000, 3.
16.48000, 3.
16.50000, 2.
16.52000, 3.
16.54000, 5.
16.56000, 0.
16.58000, 4.
16.60000, 3.
16.62000, 2.
16.64000, 4.
16.66000, 3.
16.68000, 3.
16.70000, 0.
16.72000, 4.
16.74000, 5.
16.76000, 0.
16.78000, 6.
16.80000, 5.
16.82000, 2.
16.84000, 1.
16.86000, 3.
16.88000, 1.
16.90000, 0.
16.92000, 2.
16.94000, 4.
16.96000, 1.
16.98000, 3.
17.00000, 2.
17.02000, 2.
17.04000, 5.
17.06000, 2.
17.08000, 2.
17.10000, 5.
17.12000, 2.
17.14000, 5.
17.16000, 0.
17.18000, 3.
17.20000, 0.
17.22000, 4.
17.24000, 0.
17.26000, 6.
17.28000, 2.
17.30000, 1.
17.32000, 2.
17.34000, 2.
17.36000, 4.
17.38000, 3.
17.40000, 4.
17.42000, 7.
17.44000, 1.
17.46000, 1.
17.48000, 1.
17.50000, 1.
17.52000, 3.
17.54000, 0.
17.56000, 1.
17.58000, 2.
17.60000, 2.
17.62000, 2.
17.64000, 2.
17.66000, 0.
17.68000, 1.
17.70000, 2.
17.72000, 3.
17.74000, 2.
17.76000, 1.
17.78000, 0.
17.80000, 2.
17.82000, 1.
17.84000, 0.
17.86000, 1.
17.88000, 4.
17.90000, 1.
17.92000, 1.
17.94000, 0.
17.96000, 0.
17.98000, 0.
18.00000, 1.
18.02000, 2.
18.04000, 0.
18.06000, 2.
18.08000, 4.
18.10000, 2.
18.12000, 4.
18.14000, 0.
18.16000, 2.
18.18000, 2.
18.20000, 0.
18.22000, 1.
18.24000, 3.
18.26000, 0.
18.28000, 1.
18.30000, 0.
18.32000, 0.
18.34000, 2.
18.36000, 2.
18.38000, 2.
18.40000, 0.
18.42000, 2.
18.44000, 0.
18.46000, 1.
18.48000, 0.
18.50000, 0.
18.52000, 2.
18.54000, 3.
18.56000, 0.
18.58000, 2.
18.60000, 3.
18.62000, 2.
18.64000, 0.
18.66000, 0.
18.68000, 1.
18.70000, 0.
18.72000, 2.
18.74000, 2.
18.76000, 0.
18.78000, 1.
18.80000, 0.
18.82000, 1.
18.84000, 0.
18.86000, 1.
18.88000, 0.
18.90000, 1.
18.92000, 1.
18.94000, 1.
18.96000, 2.
18.98000, 0.
19.00000, 1.
19.02000, 1.
19.04000, 2.
19.06000, 0.
19.08000, 1.
19.10000, 0.
19.12000, 0.
19.14000, 0.
19.16000, 0.
19.18000, 1.
19.20000, 1.
19.22000, 0.
19.24000, 2.
19.26000, 0.
19.28000, 0.
19.30000, 0.
19.32000, 0.
19.34000, 0.
19.36000, 1.
19.38000, 0.
19.40000, 1.
19.42000, 0.
19.44000, 0.
19.46000, 0.
19.48000, 1.
19.50000, 0.
19.52000, 0.
19.54000, 0.
19.56000, 0.
19.58000, 0.
19.60000, 0.
19.62000, 0.
19.64000, 0.
19.66000, 0.
19.68000, 0.
19.70000, 0.
19.72000, 0.
19.74000, 0.
19.76000, 0.
19.78000, 0.
19.80000, 0.
19.82000, 0.
19.84000, 0.
19.86000, 0.
19.88000, 0.
19.90000, 0.
19.92000, 0.
19.94000, 0.
19.96000, 0.
19.98000, 0.
20.00000, 0.
20.02000, 0.
20.04000, 0.
20.06000, 0.
20.08000, 0.
20.10000, 0.
20.12000, 0.
20.14000, 0.
20.16000, 0.
20.18000, 0.
20.20000, 0.
20.22000, 0.
20.24000, 0.
20.26000, 0.
20.27000, 0.
#ENDOFDATA   :