File: data/monolayers/nanoparticles/Ac_CoFe_C/edx/data/AH11_1.txt
#FORMAT      : EMSA/MAS Spectral Data File
#VERSION     : 1.0
#TITLE       : Spectrum 1
#DATE        : 04-DEC-2018
#TIME        : 10:16
#OWNER       :
#NPOINTS     : 2048.
#NCOLUMNS    : 1.
#XUNITS      : keV
#YUNITS      : counts
#DATATYPE    : XY
#XPERCHAN    : 0.0100000
#OFFSET      : -0.200000
#SIGNALTYPE  : EDS
#CHOFFSET    : 20.0000
#LIVETIME    : 100
#REALTIME    : 115.761
#BEAMKV      : 20.0000
#PROBECUR    : 0.000000
#MAGCAM      : 3213.00
#XTILTSTGE   : 0.0
#AZIMANGLE   : 0.0
#ELEVANGLE   : 35.0
#XPOSITION mm: 0.0000
#YPOSITION mm: 0.0000
#ZPOSITION mm: 0.0000
##OXINSTPT   : 5
##OXINSTSTROB: 50.43
##OXINSTELEMS: 6,8,11,14,26,27
##OXINSTLABEL: 14, 1.740, Si
##OXINSTLABEL: 8, 0.525, O
##OXINSTLABEL: 27, 6.930, Co
##OXINSTLABEL: 27, 7.650, Co
##OXINSTLABEL: 27, 0.776, Co
##OXINSTLABEL: 27, 0.694, Co
##OXINSTLABEL: 27, 0.678, Co
##OXINSTLABEL: 26, 6.404, Fe
##OXINSTLABEL: 26, 7.058, Fe
##OXINSTLABEL: 26, 0.705, Fe
##OXINSTLABEL: 26, 0.628, Fe
##OXINSTLABEL: 6, 0.277, C
##OXINSTLABEL: 11, 1.041, Na
#SPECTRUM    : Spectral Data Starts Here
-0.20000, 0.
-0.18000, 1.
-0.16000, 2.
-0.14000, 1.
-0.12000, 6.
-0.10000, 18.
-0.08000, 50.
-0.06000, 183.
-0.04000, 802.
-0.02000, 3099.
0.00000, 6637.
0.02000, 7649.
0.04000, 4847.
0.06000, 1998.
0.08000, 863.
0.10000, 519.
0.12000, 350.
0.14000, 241.
0.16000, 155.
0.18000, 142.
0.20000, 217.
0.22000, 414.
0.24000, 849.
0.26000, 1374.
0.28000, 1438.
0.30000, 868.
0.32000, 292.
0.34000, 95.
0.36000, 51.
0.38000, 44.
0.40000, 40.
0.42000, 62.
0.44000, 106.
0.46000, 224.
0.48000, 581.
0.50000, 1292.
0.52000, 1759.
0.54000, 1457.
0.56000, 780.
0.58000, 390.
0.60000, 304.
0.62000, 257.
0.64000, 298.
0.66000, 369.
0.68000, 589.
0.70000, 803.
0.72000, 765.
0.74000, 561.
0.76000, 416.
0.78000, 345.
0.80000, 276.
0.82000, 152.
0.84000, 87.
0.86000, 48.
0.88000, 60.
0.90000, 56.
0.92000, 50.
0.94000, 46.
0.96000, 59.
0.98000, 50.
1.00000, 68.
1.02000, 90.
1.04000, 96.
1.06000, 81.
1.08000, 96.
1.10000, 74.
1.12000, 67.
1.14000, 76.
1.16000, 69.
1.18000, 76.
1.20000, 82.
1.22000, 80.
1.24000, 76.
1.26000, 94.
1.28000, 76.
1.30000, 83.
1.32000, 85.
1.34000, 73.
1.36000, 95.
1.38000, 88.
1.40000, 98.
1.42000, 100.
1.44000, 90.
1.46000, 109.
1.48000, 107.
1.50000, 98.
1.52000, 98.
1.54000, 92.
1.56000, 103.
1.58000, 112.
1.60000, 90.
1.62000, 102.
1.64000, 105.
1.66000, 99.
1.68000, 146.
1.70000, 161.
1.72000, 181.
1.74000, 219.
1.76000, 207.
1.78000, 176.
1.80000, 140.
1.82000, 121.
1.84000, 123.
1.86000, 103.
1.88000, 97.
1.90000, 110.
1.92000, 101.
1.94000, 105.
1.96000, 91.
1.98000, 105.
2.00000, 97.
2.02000, 109.
2.04000, 101.
2.06000, 100.
2.08000, 118.
2.10000, 96.
2.12000, 87.
2.14000, 111.
2.16000, 102.
2.18000, 97.
2.20000, 105.
2.22000, 112.
2.24000, 107.
2.26000, 97.
2.28000, 107.
2.30000, 110.
2.32000, 105.
2.34000, 101.
2.36000, 95.
2.38000, 78.
2.40000, 100.
2.42000, 103.
2.44000, 94.
2.46000, 102.
2.48000, 105.
2.50000, 105.
2.52000, 102.
2.54000, 94.
2.56000, 100.
2.58000, 92.
2.60000, 100.
2.62000, 82.
2.64000, 89.
2.66000, 86.
2.68000, 86.
2.70000, 86.
2.72000, 89.
2.74000, 98.
2.76000, 86.
2.78000, 92.
2.80000, 89.
2.82000, 93.
2.84000, 89.
2.86000, 93.
2.88000, 79.
2.90000, 79.
2.92000, 94.
2.94000, 94.
2.96000, 74.
2.98000, 87.
3.00000, 78.
3.02000, 82.
3.04000, 85.
3.06000, 74.
3.08000, 78.
3.10000, 84.
3.12000, 78.
3.14000, 83.
3.16000, 72.
3.18000, 75.
3.20000, 80.
3.22000, 86.
3.24000, 85.
3.26000, 81.
3.28000, 72.
3.30000, 71.
3.32000, 80.
3.34000, 79.
3.36000, 70.
3.38000, 71.
3.40000, 60.
3.42000, 74.
3.44000, 76.
3.46000, 79.
3.48000, 77.
3.50000, 73.
3.52000, 75.
3.54000, 72.
3.56000, 70.
3.58000, 72.
3.60000, 74.
3.62000, 67.
3.64000, 83.
3.66000, 76.
3.68000, 75.
3.70000, 72.
3.72000, 67.
3.74000, 71.
3.76000, 69.
3.78000, 62.
3.80000, 69.
3.82000, 61.
3.84000, 62.
3.86000, 71.
3.88000, 70.
3.90000, 72.
3.92000, 64.
3.94000, 63.
3.96000, 55.
3.98000, 69.
4.00000, 60.
4.02000, 78.
4.04000, 58.
4.06000, 61.
4.08000, 67.
4.10000, 62.
4.12000, 55.
4.14000, 53.
4.16000, 58.
4.18000, 51.
4.20000, 52.
4.22000, 59.
4.24000, 58.
4.26000, 59.
4.28000, 52.
4.30000, 59.
4.32000, 57.
4.34000, 59.
4.36000, 56.
4.38000, 52.
4.40000, 54.
4.42000, 53.
4.44000, 57.
4.46000, 57.
4.48000, 59.
4.50000, 57.
4.52000, 44.
4.54000, 47.
4.56000, 62.
4.58000, 46.
4.60000, 59.
4.62000, 63.
4.64000, 47.
4.66000, 53.
4.68000, 59.
4.70000, 60.
4.72000, 53.
4.74000, 62.
4.76000, 56.
4.78000, 50.
4.80000, 52.
4.82000, 43.
4.84000, 58.
4.86000, 48.
4.88000, 56.
4.90000, 42.
4.92000, 50.
4.94000, 50.
4.96000, 45.
4.98000, 50.
5.00000, 50.
5.02000, 38.
5.04000, 44.
5.06000, 43.
5.08000, 40.
5.10000, 48.
5.12000, 44.
5.14000, 49.
5.16000, 56.
5.18000, 44.
5.20000, 46.
5.22000, 44.
5.24000, 36.
5.26000, 42.
5.28000, 44.
5.30000, 54.
5.32000, 48.
5.34000, 49.
5.36000, 46.
5.38000, 37.
5.40000, 48.
5.42000, 48.
5.44000, 37.
5.46000, 46.
5.48000, 35.
5.50000, 47.
5.52000, 42.
5.54000, 40.
5.56000, 42.
5.58000, 40.
5.60000, 48.
5.62000, 44.
5.64000, 33.
5.66000, 50.
5.68000, 30.
5.70000, 34.
5.72000, 37.
5.74000, 29.
5.76000, 31.
5.78000, 36.
5.80000, 30.
5.82000, 43.
5.84000, 42.
5.86000, 33.
5.88000, 39.
5.90000, 38.
5.92000, 41.
5.94000, 46.
5.96000, 36.
5.98000, 32.
6.00000, 38.
6.02000, 29.
6.04000, 39.
6.06000, 37.
6.08000, 23.
6.10000, 43.
6.12000, 44.
6.14000, 38.
6.16000, 44.
6.18000, 37.
6.20000, 44.
6.22000, 60.
6.24000, 77.
6.26000, 149.
6.28000, 224.
6.30000, 392.
6.32000, 653.
6.34000, 956.
6.36000, 1286.
6.38000, 1533.
6.40000, 1596.
6.42000, 1483.
6.44000, 1259.
6.46000, 972.
6.48000, 704.
6.50000, 395.
6.52000, 268.
6.54000, 129.
6.56000, 76.
6.58000, 56.
6.60000, 51.
6.62000, 25.
6.64000, 36.
6.66000, 41.
6.68000, 35.
6.70000, 22.
6.72000, 38.
6.74000, 46.
6.76000, 39.
6.78000, 61.
6.80000, 81.
6.82000, 123.
6.84000, 197.
6.86000, 264.
6.88000, 339.
6.90000, 421.
6.92000, 467.
6.94000, 429.
6.96000, 478.
6.98000, 392.
7.00000, 338.
7.02000, 331.
7.04000, 255.
7.06000, 244.
7.08000, 220.
7.10000, 176.
7.12000, 178.
7.14000, 101.
7.16000, 69.
7.18000, 53.
7.20000, 38.
7.22000, 32.
7.24000, 27.
7.26000, 23.
7.28000, 25.
7.30000, 27.
7.32000, 30.
7.34000, 20.
7.36000, 18.
7.38000, 19.
7.40000, 24.
7.42000, 18.
7.44000, 24.
7.46000, 23.
7.48000, 23.
7.50000, 23.
7.52000, 39.
7.54000, 32.
7.56000, 37.
7.58000, 40.
7.60000, 47.
7.62000, 56.
7.64000, 64.
7.66000, 63.
7.68000, 59.
7.70000, 55.
7.72000, 45.
7.74000, 40.
7.76000, 26.
7.78000, 26.
7.80000, 16.
7.82000, 28.
7.84000, 10.
7.86000, 18.
7.88000, 17.
7.90000, 18.
7.92000, 27.
7.94000, 20.
7.96000, 18.
7.98000, 16.
8.00000, 20.
8.02000, 13.
8.04000, 18.
8.06000, 18.
8.08000, 21.
8.10000, 19.
8.12000, 17.
8.14000, 15.
8.16000, 14.
8.18000, 23.
8.20000, 17.
8.22000, 24.
8.24000, 18.
8.26000, 18.
8.28000, 21.
8.30000, 24.
8.32000, 15.
8.34000, 22.
8.36000, 21.
8.38000, 11.
8.40000, 18.
8.42000, 10.
8.44000, 17.
8.46000, 20.
8.48000, 23.
8.50000, 15.
8.52000, 18.
8.54000, 14.
8.56000, 16.
8.58000, 13.
8.60000, 12.
8.62000, 21.
8.64000, 13.
8.66000, 14.
8.68000, 17.
8.70000, 14.
8.72000, 12.
8.74000, 11.
8.76000, 21.
8.78000, 16.
8.80000, 14.
8.82000, 17.
8.84000, 20.
8.86000, 20.
8.88000, 15.
8.90000, 15.
8.92000, 17.
8.94000, 14.
8.96000, 18.
8.98000, 20.
9.00000, 12.
9.02000, 12.
9.04000, 13.
9.06000, 18.
9.08000, 11.
9.10000, 15.
9.12000, 16.
9.14000, 11.
9.16000, 14.
9.18000, 15.
9.20000, 15.
9.22000, 21.
9.24000, 15.
9.26000, 13.
9.28000, 17.
9.30000, 17.
9.32000, 14.
9.34000, 20.
9.36000, 20.
9.38000, 15.
9.40000, 16.
9.42000, 14.
9.44000, 17.
9.46000, 13.
9.48000, 11.
9.50000, 14.
9.52000, 11.
9.54000, 10.
9.56000, 17.
9.58000, 9.
9.60000, 8.
9.62000, 19.
9.64000, 16.
9.66000, 8.
9.68000, 8.
9.70000, 16.
9.72000, 13.
9.74000, 9.
9.76000, 10.
9.78000, 13.
9.80000, 10.
9.82000, 12.
9.84000, 10.
9.86000, 8.
9.88000, 10.
9.90000, 8.
9.92000, 14.
9.94000, 11.
9.96000, 13.
9.98000, 15.
10.00000, 11.
10.02000, 13.
10.04000, 10.
10.06000, 12.
10.08000, 10.
10.10000, 8.
10.12000, 10.
10.14000, 12.
10.16000, 11.
10.18000, 9.
10.20000, 17.
10.22000, 10.
10.24000, 17.
10.26000, 12.
10.28000, 9.
10.30000, 14.
10.32000, 12.
10.34000, 9.
10.36000, 8.
10.38000, 17.
10.40000, 12.
10.42000, 18.
10.44000, 12.
10.46000, 12.
10.48000, 5.
10.50000, 10.
10.52000, 14.
10.54000, 13.
10.56000, 13.
10.58000, 11.
10.60000, 5.
10.62000, 10.
10.64000, 11.
10.66000, 10.
10.68000, 17.
10.70000, 12.
10.72000, 12.
10.74000, 11.
10.76000, 12.
10.78000, 16.
10.80000, 11.
10.82000, 10.
10.84000, 9.
10.86000, 13.
10.88000, 12.
10.90000, 14.
10.92000, 10.
10.94000, 11.
10.96000, 11.
10.98000, 9.
11.00000, 6.
11.02000, 7.
11.04000, 10.
11.06000, 11.
11.08000, 12.
11.10000, 7.
11.12000, 13.
11.14000, 8.
11.16000, 11.
11.18000, 11.
11.20000, 13.
11.22000, 14.
11.24000, 12.
11.26000, 8.
11.28000, 9.
11.30000, 7.
11.32000, 12.
11.34000, 10.
11.36000, 9.
11.38000, 12.
11.40000, 12.
11.42000, 10.
11.44000, 9.
11.46000, 13.
11.48000, 12.
11.50000, 8.
11.52000, 9.
11.54000, 10.
11.56000, 6.
11.58000, 11.
11.60000, 8.
11.62000, 7.
11.64000, 10.
11.66000, 11.
11.68000, 7.
11.70000, 11.
11.72000, 9.
11.74000, 7.
11.76000, 10.
11.78000, 6.
11.80000, 4.
11.82000, 9.
11.84000, 7.
11.86000, 10.
11.88000, 11.
11.90000, 11.
11.92000, 10.
11.94000, 7.
11.96000, 10.
11.98000, 8.
12.00000, 9.
12.02000, 9.
12.04000, 8.
12.06000, 11.
12.08000, 13.
12.10000, 10.
12.12000, 8.
12.14000, 8.
12.16000, 8.
12.18000, 8.
12.20000, 9.
12.22000, 6.
12.24000, 10.
12.26000, 10.
12.28000, 9.
12.30000, 7.
12.32000, 6.
12.34000, 4.
12.36000, 9.
12.38000, 8.
12.40000, 3.
12.42000, 9.
12.44000, 6.
12.46000, 10.
12.48000, 5.
12.50000, 8.
12.52000, 11.
12.54000, 8.
12.56000, 6.
12.58000, 8.
12.60000, 7.
12.62000, 9.
12.64000, 8.
12.66000, 5.
12.68000, 7.
12.70000, 5.
12.72000, 8.
12.74000, 9.
12.76000, 7.
12.78000, 8.
12.80000, 8.
12.82000, 7.
12.84000, 8.
12.86000, 5.
12.88000, 8.
12.90000, 9.
12.92000, 9.
12.94000, 10.
12.96000, 7.
12.98000, 4.
13.00000, 5.
13.02000, 7.
13.04000, 2.
13.06000, 5.
13.08000, 6.
13.10000, 9.
13.12000, 3.
13.14000, 8.
13.16000, 6.
13.18000, 6.
13.20000, 4.
13.22000, 6.
13.24000, 5.
13.26000, 8.
13.28000, 7.
13.30000, 4.
13.32000, 6.
13.34000, 8.
13.36000, 4.
13.38000, 5.
13.40000, 4.
13.42000, 4.
13.44000, 8.
13.46000, 6.
13.48000, 11.
13.50000, 4.
13.52000, 5.
13.54000, 6.
13.56000, 4.
13.58000, 8.
13.60000, 5.
13.62000, 7.
13.64000, 7.
13.66000, 3.
13.68000, 3.
13.70000, 6.
13.72000, 6.
13.74000, 4.
13.76000, 7.
13.78000, 5.
13.80000, 6.
13.82000, 6.
13.84000, 7.
13.86000, 6.
13.88000, 5.
13.90000, 8.
13.92000, 6.
13.94000, 5.
13.96000, 6.
13.98000, 8.
14.00000, 4.
14.02000, 6.
14.04000, 4.
14.06000, 6.
14.08000, 9.
14.10000, 7.
14.12000, 6.
14.14000, 5.
14.16000, 5.
14.18000, 6.
14.20000, 4.
14.22000, 6.
14.24000, 3.
14.26000, 5.
14.28000, 5.
14.30000, 4.
14.32000, 4.
14.34000, 7.
14.36000, 4.
14.38000, 6.
14.40000, 5.
14.42000, 4.
14.44000, 5.
14.46000, 3.
14.48000, 8.
14.50000, 7.
14.52000, 7.
14.54000, 5.
14.56000, 6.
14.58000, 4.
14.60000, 4.
14.62000, 5.
14.64000, 4.
14.66000, 4.
14.68000, 8.
14.70000, 7.
14.72000, 5.
14.74000, 5.
14.76000, 3.
14.78000, 2.
14.80000, 3.
14.82000, 5.
14.84000, 3.
14.86000, 2.
14.88000, 6.
14.90000, 3.
14.92000, 6.
14.94000, 5.
14.96000, 2.
14.98000, 5.
15.00000, 1.
15.02000, 4.
15.04000, 4.
15.06000, 7.
15.08000, 2.
15.10000, 4.
15.12000, 6.
15.14000, 4.
15.16000, 3.
15.18000, 4.
15.20000, 4.
15.22000, 6.
15.24000, 1.
15.26000, 4.
15.28000, 3.
15.30000, 2.
15.32000, 3.
15.34000, 3.
15.36000, 1.
15.38000, 2.
15.40000, 3.
15.42000, 6.
15.44000, 3.
15.46000, 4.
15.48000, 3.
15.50000, 4.
15.52000, 2.
15.54000, 5.
15.56000, 4.
15.58000, 2.
15.60000, 0.
15.62000, 1.
15.64000, 2.
15.66000, 2.
15.68000, 3.
15.70000, 6.
15.72000, 1.
15.74000, 2.
15.76000, 3.
15.78000, 1.
15.80000, 5.
15.82000, 3.
15.84000, 6.
15.86000, 3.
15.88000, 5.
15.90000, 0.
15.92000, 2.
15.94000, 1.
15.96000, 4.
15.98000, 3.
16.00000, 2.
16.02000, 4.
16.04000, 2.
16.06000, 0.
16.08000, 2.
16.10000, 0.
16.12000, 2.
16.14000, 2.
16.16000, 3.
16.18000, 3.
16.20000, 2.
16.22000, 3.
16.24000, 3.
16.26000, 6.
16.28000, 1.
16.30000, 4.
16.32000, 5.
16.34000, 1.
16.36000, 4.
16.38000, 1.
16.40000, 2.
16.42000, 3.
16.44000, 0.
16.46000, 3.
16.48000, 4.
16.50000, 4.
16.52000, 3.
16.54000, 2.
16.56000, 0.
16.58000, 1.
16.60000, 1.
16.62000, 0.
16.64000, 2.
16.66000, 1.
16.68000, 4.
16.70000, 1.
16.72000, 0.
16.74000, 2.
16.76000, 2.
16.78000, 1.
16.80000, 0.
16.82000, 2.
16.84000, 2.
16.86000, 1.
16.88000, 0.
16.90000, 3.
16.92000, 0.
16.94000, 2.
16.96000, 1.
16.98000, 1.
17.00000, 1.
17.02000, 1.
17.04000, 1.
17.06000, 2.
17.08000, 2.
17.10000, 4.
17.12000, 2.
17.14000, 0.
17.16000, 2.
17.18000, 4.
17.20000, 2.
17.22000, 0.
17.24000, 1.
17.26000, 0.
17.28000, 1.
17.30000, 3.
17.32000, 0.
17.34000, 1.
17.36000, 3.
17.38000, 2.
17.40000, 2.
17.42000, 0.
17.44000, 3.
17.46000, 0.
17.48000, 0.
17.50000, 1.
17.52000, 1.
17.54000, 0.
17.56000, 0.
17.58000, 1.
17.60000, 1.
17.62000, 0.
17.64000, 0.
17.66000, 0.
17.68000, 1.
17.70000, 0.
17.72000, 1.
17.74000, 0.
17.76000, 0.
17.78000, 1.
17.80000, 1.
17.82000, 1.
17.84000, 1.
17.86000, 0.
17.88000, 1.
17.90000, 1.
17.92000, 1.
17.94000, 1.
17.96000, 0.
17.98000, 1.
18.00000, 2.
18.02000, 2.
18.04000, 1.
18.06000, 0.
18.08000, 0.
18.10000, 0.
18.12000, 4.
18.14000, 1.
18.16000, 1.
18.18000, 0.
18.20000, 0.
18.22000, 2.
18.24000, 0.
18.26000, 1.
18.28000, 0.
18.30000, 2.
18.32000, 0.
18.34000, 0.
18.36000, 1.
18.38000, 0.
18.40000, 0.
18.42000, 0.
18.44000, 0.
18.46000, 1.
18.48000, 0.
18.50000, 1.
18.52000, 0.
18.54000, 0.
18.56000, 1.
18.58000, 0.
18.60000, 2.
18.62000, 1.
18.64000, 0.
18.66000, 1.
18.68000, 0.
18.70000, 0.
18.72000, 0.
18.74000, 0.
18.76000, 0.
18.78000, 0.
18.80000, 0.
18.82000, 0.
18.84000, 0.
18.86000, 0.
18.88000, 0.
18.90000, 0.
18.92000, 0.
18.94000, 0.
18.96000, 1.
18.98000, 0.
19.00000, 0.
19.02000, 0.
19.04000, 0.
19.06000, 0.
19.08000, 0.
19.10000, 0.
19.12000, 0.
19.14000, 0.
19.16000, 0.
19.18000, 0.
19.20000, 0.
19.22000, 0.
19.24000, 0.
19.26000, 0.
19.28000, 0.
19.30000, 0.
19.32000, 0.
19.34000, 0.
19.36000, 0.
19.38000, 0.
19.40000, 0.
19.42000, 0.
19.44000, 0.
19.46000, 0.
19.48000, 0.
19.50000, 0.
19.52000, 0.
19.54000, 0.
19.56000, 0.
19.58000, 0.
19.60000, 0.
19.62000, 0.
19.64000, 0.
19.66000, 0.
19.68000, 0.
19.70000, 0.
19.72000, 0.
19.74000, 0.
19.76000, 0.
19.78000, 0.
19.80000, 0.
19.82000, 0.
19.84000, 0.
19.86000, 0.
19.88000, 0.
19.90000, 0.
19.92000, 0.
19.94000, 0.
19.96000, 0.
19.98000, 0.
20.00000, 0.
20.02000, 0.
20.04000, 0.
20.06000, 0.
20.08000, 0.
20.10000, 0.
20.12000, 0.
20.14000, 0.
20.16000, 0.
20.18000, 0.
20.20000, 0.
20.22000, 0.
20.24000, 0.
20.26000, 0.
20.27000, 0.
#ENDOFDATA   :