File: data/monolayers/nanoparticles/Ol_CoFe_C/xrd/DD67.dat
 5.013  5336
 5.065  5264
 5.117  5101
 5.169  5101
 5.221  5076
 5.273  5104
 5.325  5086
 5.377  4999
 5.429  4929
 5.481  4961
 5.533  5058
 5.585  4969
 5.637  4840
 5.689  4781
 5.741  4759
 5.793  4767
 5.845  4645
 5.897  4897
 5.949  4609
 6.001  4671
 6.053  4696
 6.105  4616
 6.157  4541
 6.209  4546
 6.261  4482
 6.313  4520
 6.365  4555
 6.417  4486
 6.469  4464
 6.521  4433
 6.573  4241
 6.625  4436
 6.677  4377
 6.729  4371
 6.781  4311
 6.833  4254
 6.885  4275
 6.937  4094
 6.989  4115
 7.041  4201
 7.093  4024
 7.145  4196
 7.197  4119
 7.249  4038
 7.301  4046
 7.353  4028
 7.405  3979
 7.457  3876
 7.509  3954
 7.561  3856
 7.613  3901
 7.665  4024
 7.717  3904
 7.769  3905
 7.821  3888
 7.873  3874
 7.925  3949
 7.977  3807
 8.029  3751
 8.081  3704
 8.133  3624
 8.185  3634
 8.237  3660
 8.289  3691
 8.341  3585
 8.393  3660
 8.445  3631
 8.497  3601
 8.549  3657
 8.601  3620
 8.653  3608
 8.705  3531
 8.757  3577
 8.809  3557
 8.861  3526
 8.913  3526
 8.965  3506
 9.017  3478
 9.069  3464
 9.121  3458
 9.173  3421
 9.225  3405
 9.277  3463
 9.329  3393
 9.381  3366
 9.433  3492
 9.485  3555
 9.537  3313
 9.589  3281
 9.641  3294
 9.693  3201
 9.745  3255
 9.797  3216
 9.849  3264
 9.901  3334
 9.953  3222
 10.005  3331
 10.057  3230
 10.109  3241
 10.161  3210
 10.213  3196
 10.265  3237
 10.317  3188
 10.369  3116
 10.421  3085
 10.473  3074
 10.525  3148
 10.577  3137
 10.629  3097
 10.681  3061
 10.733  3196
 10.785  3189
 10.837  3199
 10.889  3093
 10.941  3097
 10.993  3099
 11.045  3160
 11.097  3212
 11.149  3173
 11.201  3048
 11.253  3070
 11.305  3111
 11.357  3084
 11.409  3154
 11.461  3058
 11.513  3151
 11.565  3149
 11.617  3085
 11.669  3090
 11.721  3152
 11.773  3147
 11.825  3147
 11.877  3110
 11.929  3102
 11.981  3071
 12.033  3049
 12.085  3078
 12.137  3130
 12.189  3094
 12.241  3120
 12.293  3083
 12.345  3072
 12.397  3129
 12.449  3064
 12.501  3155
 12.553  3033
 12.605  3048
 12.657  3114
 12.709  3028
 12.761  3084
 12.813  3118
 12.865  3073
 12.917  3016
 12.969  3112
 13.021  3037
 13.073  3020
 13.125  3038
 13.177  3037
 13.229  3012
 13.281  3053
 13.333  3098
 13.385  3072
 13.437  3107
 13.489  3075
 13.541  3085
 13.593  3001
 13.645  3019
 13.697  2945
 13.749  3044
 13.801  3050
 13.853  2997
 13.905  3067
 13.957  3051
 14.009  3049
 14.061  3056
 14.113  2972
 14.165  3030
 14.217  2963
 14.269  2969
 14.321  2942
 14.373  2922
 14.425  2954
 14.477  2974
 14.529  2960
 14.581  3046
 14.633  2904
 14.685  2941
 14.737  2966
 14.789  2850
 14.841  2978
 14.893  2824
 14.945  2855
 14.997  2899
 15.049  2821
 15.101  2899
 15.153  2817
 15.205  2852
 15.257  2894
 15.309  2907
 15.361  2889
 15.413  2803
 15.465  2893
 15.517  2902
 15.569  2915
 15.621  2889
 15.673  2960
 15.725  2908
 15.777  2939
 15.829  2872
 15.881  3007
 15.933  2947
 15.985  2865
 16.037  2924
 16.089  2969
 16.141  2961
 16.193  2938
 16.245  2916
 16.297  2914
 16.349  2974
 16.401  2977
 16.453  3077
 16.505  3048
 16.557  2908
 16.609  3028
 16.661  2989
 16.713  2942
 16.765  3022
 16.817  3054
 16.869  3043
 16.921  3019
 16.973  3031
 17.025  2998
 17.077  3062
 17.129  3031
 17.181  3077
 17.233  2985
 17.285  3091
 17.337  3085
 17.389  3021
 17.441  3081
 17.493  3057
 17.545  3093
 17.597  3080
 17.649  3101
 17.701  3062
 17.753  3150
 17.805  3014
 17.857  3134
 17.909  3107
 17.961  3056
 18.013  3002
 18.065  3146
 18.117  3058
 18.169  3090
 18.221  3110
 18.273  3093
 18.325  3015
 18.377  3050
 18.429  3067
 18.481  3161
 18.533  3100
 18.585  3098
 18.637  3115
 18.689  3138
 18.741  3062
 18.793  3075
 18.845  3137
 18.897  3114
 18.949  3168
 19.001  3130
 19.053  3078
 19.105  2995
 19.157  3053
 19.209  3157
 19.261  3082
 19.313  3094
 19.365  3148
 19.417  3136
 19.469  3039
 19.521  3018
 19.573  3159
 19.625  3139
 19.677  3182
 19.729  3104
 19.781  3178
 19.833  3093
 19.885  3210
 19.937  3167
 19.989  3215
 20.041  3178
 20.093  3224
 20.145  3238
 20.197  3211
 20.249  3153
 20.301  3140
 20.353  3209
 20.405  3320
 20.457  3290
 20.509  3144
 20.561  3185
 20.613  3281
 20.665  3316
 20.717  3333
 20.769  3300
 20.821  3256
 20.873  3257
 20.925  3208
 20.977  3213
 21.029  3276
 21.081  3268
 21.133  3313
 21.185  3189
 21.237  3277
 21.289  3363
 21.341  3380
 21.393  3291
 21.445  3310
 21.497  3360
 21.549  3403
 21.601  3379
 21.653  3388
 21.705  3388
 21.757  3374
 21.809  3324
 21.861  3402
 21.913  3373
 21.965  3436
 22.017  3413
 22.069  3505
 22.121  3394
 22.173  3414
 22.225  3434
 22.277  3448
 22.329  3367
 22.381  3461
 22.433  3463
 22.485  3406
 22.537  3467
 22.589  3539
 22.641  3324
 22.693  3510
 22.745  3486
 22.797  3548
 22.849  3556
 22.901  3521
 22.953  3516
 23.005  3508
 23.057  3465
 23.109  3569
 23.161  3564
 23.213  3610
 23.265  3534
 23.317  3570
 23.369  3534
 23.421  3588
 23.473  3583
 23.525  3602
 23.577  3558
 23.629  3653
 23.681  3456
 23.733  3661
 23.785  3601
 23.837  3626
 23.889  3627
 23.941  3622
 23.993  3642
 24.045  3681
 24.097  3637
 24.149  3664
 24.201  3700
 24.253  3582
 24.305  3604
 24.357  3610
 24.409  3591
 24.461  3620
 24.513  3605
 24.565  3656
 24.617  3614
 24.669  3615
 24.721  3564
 24.773  3586
 24.825  3632
 24.877  3617
 24.929  3613
 24.981  3644
 25.033  3580
 25.085  3695
 25.137  3708
 25.189  3713
 25.241  3614
 25.293  3686
 25.345  3685
 25.397  3713
 25.449  3635
 25.501  3619
 25.553  3638
 25.605  3653
 25.657  3619
 25.709  3549
 25.761  3697
 25.813  3574
 25.865  3666
 25.917  3527
 25.969  3614
 26.021  3629
 26.073  3675
 26.125  3574
 26.177  3585
 26.229  3621
 26.281  3664
 26.333  3774
 26.385  3507
 26.437  3611
 26.489  3595
 26.541  3718
 26.593  3629
 26.645  3679
 26.697  3655
 26.749  3637
 26.801  3554
 26.853  3582
 26.905  3630
 26.957  3623
 27.009  3569
 27.061  3604
 27.113  3590
 27.165  3658
 27.217  3636
 27.269  3653
 27.321  3640
 27.373  3654
 27.425  3703
 27.477  3665
 27.529  3681
 27.581  3578
 27.633  3595
 27.685  3794
 27.737  3678
 27.789  3737
 27.841  3664
 27.893  3725
 27.945  3756
 27.997  3753
 28.049  3714
 28.101  3717
 28.153  3721
 28.205  3792
 28.257  3803
 28.309  3758
 28.361  3667
 28.413  3768
 28.465  3807
 28.517  3764
 28.569  3820
 28.621  3918
 28.673  3810
 28.725  3885
 28.777  3803
 28.829  3861
 28.881  3868
 28.933  3771
 28.985  3768
 29.037  3764
 29.089  3765
 29.141  3871
 29.193  3935
 29.245  3828
 29.297  3875
 29.349  3822
 29.401  3858
 29.453  3850
 29.505  3938
 29.557  3842
 29.609  3873
 29.661  3815
 29.713  3933
 29.765  3882
 29.817  3800
 29.869  3935
 29.921  3883
 29.973  3850
 30.025  3887
 30.077  3720
 30.129  3844
 30.181  3823
 30.233  3814
 30.285  3821
 30.337  3825
 30.389  3806
 30.441  3842
 30.493  3837
 30.545  3777
 30.597  3857
 30.649  3760
 30.701  3817
 30.753  3714
 30.805  3755
 30.857  3668
 30.909  3807
 30.961  3684
 31.013  3638
 31.065  3727
 31.117  3654
 31.169  3660
 31.221  3637
 31.273  3680
 31.325  3611
 31.377  3653
 31.429  3664
 31.481  3679
 31.533  3652
 31.585  3596
 31.637  3725
 31.689  3642
 31.741  3619
 31.793  3627
 31.845  3582
 31.897  3713
 31.949  3583
 32.001  3653
 32.053  3620
 32.105  3579
 32.157  3606
 32.209  3693
 32.261  3480
 32.313  3537
 32.365  3579
 32.417  3592
 32.469  3579
 32.521  3551
 32.573  3621
 32.625  3607
 32.677  3619
 32.729  3741
 32.781  3681
 32.833  3730
 32.885  3622
 32.937  3657
 32.989  3657
 33.041  3732
 33.093  3780
 33.145  3797
 33.197  3771
 33.249  3879
 33.301  3797
 33.353  3845
 33.405  3878
 33.457  4045
 33.509  3900
 33.561  4037
 33.613  4017
 33.665  4167
 33.717  4117
 33.769  4103
 33.821  4241
 33.873  4191
 33.925  4260
 33.977  4368
 34.029  4371
 34.081  4405
 34.133  4443
 34.185  4573
 34.237  4615
 34.289  4657
 34.341  4698
 34.393  4772
 34.445  4945
 34.497  4916
 34.549  4891
 34.601  5068
 34.653  5092
 34.705  5061
 34.757  5278
 34.809  5182
 34.861  5298
 34.913  5258
 34.965  5364
 35.017  5505
 35.069  5367
 35.121  5332
 35.173  5420
 35.225  5453
 35.277  5438
 35.329  5326
 35.381  5377
 35.433  5350
 35.485  5340
 35.537  5243
 35.589  5278
 35.641  5216
 35.693  5033
 35.745  4947
 35.797  4825
 35.849  4762
 35.901  4751
 35.953  4677
 36.005  4581
 36.057  4498
 36.109  4544
 36.161  4400
 36.213  4495
 36.265  4254
 36.317  4209
 36.369  4271
 36.421  4243
 36.473  4215
 36.525  4244
 36.577  4177
 36.629  4118
 36.681  4027
 36.733  3964
 36.785  4131
 36.837  4006
 36.889  3925
 36.941  3811
 36.993  3948
 37.045  3770
 37.097  3713
 37.149  3704
 37.201  3571
 37.253  3453
 37.305  3465
 37.357  3433
 37.409  3316
 37.461  3303
 37.513  3211
 37.565  3155
 37.617  3059
 37.669  3088
 37.721  3011
 37.773  3050
 37.825  2977
 37.877  3002
 37.929  2897
 37.981  2921
 38.033  2847
 38.085  2925
 38.137  2863
 38.189  2856
 38.241  2890
 38.293  2890
 38.345  2847
 38.397  2791
 38.449  2753
 38.501  2773
 38.553  2780
 38.605  2751
 38.657  2813
 38.709  2676
 38.761  2779
 38.813  2693
 38.865  2663
 38.917  2720
 38.969  2605
 39.021  2687
 39.073  2569
 39.125  2628
 39.177  2593
 39.229  2641
 39.281  2693
 39.333  2597
 39.385  2572
 39.437  2596
 39.489  2624
 39.541  2493
 39.593  2568
 39.645  2603
 39.697  2516
 39.749  2530
 39.801  2592
 39.853  2546
 39.905  2475
 39.957  2531
 40.009  2515
 40.061  2576
 40.113  2540
 40.165  2456
 40.217  2516
 40.269  2526
 40.321  2504
 40.373  2528
 40.425  2466
 40.477  2512
 40.529  2508
 40.581  2485
 40.633  2442
 40.685  2432
 40.737  2458
 40.789  2537
 40.841  2457
 40.893  2514
 40.945  2475
 40.997  2497
 41.049  2451
 41.101  2539
 41.153  2565
 41.205  2460
 41.257  2555
 41.309  2480
 41.361  2487
 41.413  2519
 41.465  2530
 41.517  2457
 41.569  2400
 41.621  2465
 41.673  2460
 41.725  2570
 41.777  2574
 41.829  2531
 41.881  2435
 41.933  2419
 41.985  2559
 42.037  2505
 42.089  2603
 42.141  2744
 42.193  2865
 42.245  3024
 42.297  3104
 42.349  3302
 42.401  3526
 42.453  3679
 42.505  3882
 42.557  4072
 42.609  4442
 42.661  4663
 42.713  4800
 42.765  4979
 42.817  5142
 42.869  5191
 42.921  5265
 42.973  5296
 43.025  5201
 43.077  5002
 43.129  4971
 43.181  4697
 43.233  4509
 43.285  4168
 43.337  4008
 43.389  3819
 43.441  3454
 43.493  3335
 43.545  3143
 43.597  2969
 43.649  2891
 43.701  2652
 43.753  2618
 43.805  2572
 43.857  2586
 43.909  2531
 43.961  2433
 44.013  2425
 44.065  2469
 44.117  2523
 44.169  2426
 44.221  2490
 44.273  2558
 44.325  2427
 44.377  2443
 44.429  2449
 44.481  2421
 44.533  2452
 44.585  2416
 44.637  2374
 44.689  2430
 44.741  2492
 44.793  2452
 44.845  2424
 44.897  2462
 44.949  2397
 45.001  2352
 45.053  2450
 45.105  2361
 45.157  2393
 45.209  2400
 45.261  2383
 45.313  2438
 45.365  2387
 45.417  2392
 45.469  2357
 45.521  2340
 45.573  2357
 45.625  2369
 45.677  2345
 45.729  2398
 45.781  2380
 45.833  2359
 45.885  2338
 45.937  2410
 45.989  2421
 46.041  2424
 46.093  2360
 46.145  2290
 46.197  2415
 46.249  2333
 46.301  2365
 46.353  2417
 46.405  2346
 46.457  2388
 46.509  2436
 46.561  2370
 46.613  2264
 46.665  2273
 46.717  2306
 46.769  2337
 46.821  2362
 46.873  2397
 46.925  2372
 46.977  2332
 47.029  2348
 47.081  2330
 47.133  2439
 47.185  2349
 47.237  2333
 47.289  2360
 47.341  2355
 47.393  2323
 47.445  2339
 47.497  2414
 47.549  2401
 47.601  2348
 47.653  2282
 47.705  2297
 47.757  2390
 47.809  2358
 47.861  2363
 47.913  2340
 47.965  2392
 48.017  2354
 48.069  2325
 48.121  2319
 48.173  2324
 48.225  2368
 48.277  2361
 48.329  2384
 48.381  2345
 48.433  2314
 48.485  2433
 48.537  2323
 48.589  2400
 48.641  2400
 48.693  2384
 48.745  2407
 48.797  2431
 48.849  2340
 48.901  2402
 48.953  2386
 49.005  2460
 49.057  2386
 49.109  2467
 49.161  2414
 49.213  2374
 49.265  2404
 49.317  2325
 49.369  2404
 49.421  2496
 49.473  2463
 49.525  2480
 49.577  2470
 49.629  2457
 49.681  2404
 49.733  2437
 49.785  2478
 49.837  2365
 49.889  2498
 49.941  2509
 49.993  2495
 50.045  2569
 50.097  2461
 50.149  2460
 50.201  2433
 50.253  2426
 50.305  2452
 50.357  2443
 50.409  2500
 50.461  2417
 50.513  2462
 50.565  2429
 50.617  2464
 50.669  2388
 50.721  2387
 50.773  2477
 50.825  2478
 50.877  2444
 50.929  2336
 50.981  2390
 51.033  2371
 51.085  2403
 51.137  2395
 51.189  2418
 51.241  2394
 51.293  2416
 51.345  2297
 51.397  2379
 51.449  2285
 51.501  2342
 51.553  2370
 51.605  2334
 51.657  2313
 51.709  2361
 51.761  2421
 51.813  2271
 51.865  2350
 51.917  2315
 51.969  2318
 52.021  2324
 52.073  2444
 52.125  2433
 52.177  2386
 52.229  2389
 52.281  2331
 52.333  2349
 52.385  2316
 52.437  2374
 52.489  2342
 52.541  2394
 52.593  2271
 52.645  2301
 52.697  2386
 52.749  2349
 52.801  2298
 52.853  2315
 52.905  2380
 52.957  2273
 53.009  2237
 53.061  2336
 53.113  2298
 53.165  2246
 53.217  2314
 53.269  2334
 53.321  2216
 53.373  2283
 53.425  2210
 53.477  2260
 53.529  2308
 53.581  2255
 53.633  2257
 53.685  2224
 53.737  2295
 53.789  2277
 53.841  2270
 53.893  2221
 53.945  2321
 53.997  2290
 54.049  2296
 54.101  2214
 54.153  2273
 54.205  2289
 54.257  2335
 54.309  2291
 54.361  2306
 54.413  2369
 54.465  2299
 54.517  2391
 54.569  2318
 54.621  2333
 54.673  2398
 54.725  2428
 54.777  2356
 54.829  2350
 54.881  2329
 54.933  2373
 54.985  2418
 55.037  2461
 55.089  2356
 55.141  2384
 55.193  2444
 55.245  2377
 55.297  2398
 55.349  2476
 55.401  2455
 55.453  2381
 55.505  2473
 55.557  2442
 55.609  2508
 55.661  2459
 55.713  2496
 55.765  2534
 55.817  2453
 55.869  2532
 55.921  2510
 55.973  2545
 56.025  2520
 56.077  2567
 56.129  2612
 56.181  2549
 56.233  2593
 56.285  2584
 56.337  2702
 56.389  2673
 56.441  2651
 56.493  2624
 56.545  2550
 56.597  2627
 56.649  2633
 56.701  2653
 56.753  2673
 56.805  2644
 56.857  2594
 56.909  2754
 56.961  2625
 57.013  2576
 57.065  2671
 57.117  2673
 57.169  2708
 57.221  2651
 57.273  2727
 57.325  2657
 57.377  2583
 57.429  2626
 57.481  2672
 57.533  2541
 57.585  2625
 57.637  2585
 57.689  2645
 57.741  2639
 57.793  2661
 57.845  2652
 57.897  2489
 57.949  2534
 58.001  2477
 58.053  2510
 58.105  2528
 58.157  2500
 58.209  2412
 58.261  2431
 58.313  2408
 58.365  2414
 58.417  2427
 58.469  2403
 58.521  2298
 58.573  2402
 58.625  2362
 58.677  2298
 58.729  2354
 58.781  2317
 58.833  2337
 58.885  2271
 58.937  2331
 58.989  2346
 59.041  2300
 59.093  2277
 59.145  2235
 59.197  2176
 59.249  2281
 59.301  2194
 59.353  2253
 59.405  2175
 59.457  2188
 59.509  2190
 59.561  2165
 59.613  2224
 59.665  2215
 59.717  2200
 59.769  2178
 59.821  2142
 59.873  2097
 59.925  2126
 59.977  2117
 60.029  2247
 60.081  2156
 60.133  2158
 60.185  2118
 60.237  2143
 60.289  2204
 60.341  2173
 60.393  2118
 60.445  2145
 60.497  2185
 60.549  2154
 60.601  2141
 60.653  2130
 60.705  2151
 60.757  2181
 60.809  2171
 60.861  2164
 60.913  2152
 60.965  2153
 61.017  2114
 61.069  2143
 61.121  2169
 61.173  2193
 61.225  2165
 61.277  2146
 61.329  2205
 61.381  2164
 61.433  2295
 61.485  2258
 61.537  2394
 61.589  2406
 61.641  2490
 61.693  2578
 61.745  2617
 61.797  2715
 61.849  2835
 61.901  2954
 61.953  2922
 62.005  3067
 62.057  3209
 62.109  3275
 62.161  3414
 62.213  3491
 62.265  3585
 62.317  3528
 62.369  3638
 62.421  3615
 62.473  3608
 62.525  3485
 62.577  3455
 62.629  3248
 62.681  3172
 62.733  2992
 62.785  2998
 62.837  2803
 62.889  2695
 62.941  2638
 62.993  2412
 63.045  2445
 63.097  2408
 63.149  2335
 63.201  2232
 63.253  2271
 63.305  2298
 63.357  2315
 63.409  2264
 63.461  2275
 63.513  2237
 63.565  2259
 63.617  2291
 63.669  2222
 63.721  2264
 63.773  2165
 63.825  2136
 63.877  2201
 63.929  2131
 63.981  2145
 64.033  2228
 64.085  2228
 64.137  2165
 64.189  2176
 64.241  2190
 64.293  2147
 64.345  2131
 64.397  2131
 64.449  2152
 64.501  2097
 64.553  2178
 64.605  2180
 64.657  2137
 64.709  2088
 64.761  2130
 64.813  2131
 64.865  2050
 64.917  2092
 64.969  2099
 65.021  2006
 65.073  2072
 65.125  2024
 65.177  2039
 65.229  1991
 65.281  2081
 65.333  2063
 65.385  1986
 65.437  2121
 65.489  2069
 65.541  2068
 65.593  2062
 65.645  2017
 65.697  1983
 65.749  2004
 65.801  2019
 65.853  2026
 65.905  2023
 65.957  2011
 66.009  2008
 66.061  2032
 66.113  2054
 66.165  2101
 66.217  2038
 66.269  2094
 66.321  2032
 66.373  2072
 66.425  2097
 66.477  2073
 66.529  2028
 66.581  2080
 66.633  2060
 66.685  2081
 66.737  2065
 66.789  2114
 66.841  2129
 66.893  2047
 66.945  2089
 66.997  2075
 67.049  2056
 67.101  2078
 67.153  2039
 67.205  2043
 67.257  2024
 67.309  2055
 67.361  2009
 67.413  2168
 67.465  2082
 67.517  2067
 67.569  2064
 67.621  2032
 67.673  2074
 67.725  1967
 67.777  2038
 67.829  2171
 67.881  2080
 67.933  2084
 67.985  2014
 68.037  2065
 68.089  2019
 68.141  2082
 68.193  2156
 68.245  2073
 68.297  2075
 68.349  2047
 68.401  2112
 68.453  2101
 68.505  2040
 68.557  2075
 68.609  2080
 68.661  2071
 68.713  2052
 68.765  2064
 68.817  2001
 68.869  2085
 68.921  2028
 68.973  2111
 69.025  2031
 69.077  2093
 69.129  2096
 69.181  2113
 69.233  2121
 69.285  2010
 69.337  2040
 69.389  2046
 69.441  2079
 69.493  2077
 69.545  2114
 69.597  2067
 69.649  2026
 69.701  2081
 69.753  2019
 69.805  2046
 69.857  2083
 69.909  2067
 69.961  2039
 70.013  2062
 70.065  2058
 70.117  2023
 70.169  2133
 70.221  2096
 70.273  2082
 70.325  2139
 70.377  2012
 70.429  2140
 70.481  2044
 70.533  2112
 70.585  2020
 70.637  2025
 70.689  2030
 70.741  2111
 70.793  2057
 70.845  2088
 70.897  1986
 70.949  2043
 71.001  2091
 71.053  2044
 71.105  2066
 71.157  2053
 71.209  2117
 71.261  2030
 71.313  2037
 71.365  2058
 71.417  1963
 71.469  2042
 71.521  2078
 71.573  1966
 71.625  2054
 71.677  2085
 71.729  2082
 71.781  2016
 71.833  1974
 71.885  1982
 71.937  2030
 71.989  1953
 72.041  2014
 72.093  2002
 72.145  2005
 72.197  2077
 72.249  1988
 72.301  1969
 72.353  1961
 72.405  1974
 72.457  1983
 72.509  2019
 72.561  1977
 72.613  1973
 72.665  1965
 72.717  1962
 72.769  1965
 72.821  2001
 72.873  1987
 72.925  2028
 72.977  1988
 73.029  1994
 73.081  2000
 73.133  2069
 73.185  1946
 73.237  2075
 73.289  2018
 73.341  2042
 73.393  2013
 73.445  2029
 73.497  2039
 73.549  2018
 73.601  2033
 73.653  2059
 73.705  2079
 73.757  2013
 73.809  2010
 73.861  2081
 73.913  2043
 73.965  2085
 74.017  2090
 74.069  2091
 74.121  2046
 74.173  2187
 74.225  2120
 74.277  2161
 74.329  2178
 74.381  2125
 74.433  2216
 74.485  2271
 74.537  2170
 74.589  2179
 74.641  2172
 74.693  2215
 74.745  2265
 74.797  2262
 74.849  2127
 74.901  2185
 74.953  2208
 75.005  2234
 75.057  2184
 75.109  2140
 75.161  2140
 75.213  2145
 75.265  2140
 75.317  2088
 75.369  2090
 75.421  2092
 75.473  2056
 75.525  2082
 75.577  2101
 75.629  2065
 75.681  2017
 75.733  2066
 75.785  2072
 75.837  2126
 75.889  2159
 75.941  2044
 75.993  2052
 76.045  2040
 76.097  2048
 76.149  2113
 76.201  2031
 76.253  1968
 76.305  2002
 76.357  2089
 76.409  2091
 76.461  2054
 76.513  2042
 76.565  2025
 76.617  1997
 76.669  2083
 76.721  2045
 76.773  2072
 76.825  2060
 76.877  2062
 76.929  2061
 76.981  2083
 77.033  2020
 77.085  2075
 77.137  2076
 77.189  2050
 77.241  2102
 77.293  2071
 77.345  2036
 77.397  2074
 77.449  2038
 77.501  2070
 77.553  2059
 77.605  2046
 77.657  2042
 77.709  2049
 77.761  2065
 77.813  2006
 77.865  2053
 77.917  2022
 77.969  2097
 78.021  2124
 78.073  2041
 78.125  2038
 78.177  2036
 78.229  2078
 78.281  2065
 78.333  2115
 78.385  2075
 78.437  2160
 78.489  2056
 78.541  2049
 78.593  2017
 78.645  2073
 78.697  2051
 78.749  2048
 78.801  2050
 78.853  2049
 78.905  2090
 78.957  1999
 79.009  2063
 79.061  1996
 79.113  2075
 79.165  2001
 79.217  2020
 79.269  1988
 79.321  2025
 79.373  1929
 79.425  1908
 79.477  1974
 79.529  1919
 79.581  1901
 79.633  1917
 79.685  1968
 79.737  1938
 79.789  1920
 79.841  1892
 79.867  1909