File: data/colloidalCrystals/nanoparticles/vsm/postSynthesis/rawdata/sub_and_rescale/dd144_dry_BGLinSub_rescale.xy
#Extracted data using VSM extraction tool v1.1
#Loaded parameter file: extractVSM.dat
#Desired unit of B: T
#Desired unit of M: memu
#Reading column for B: Applied Field
#Reading column for M: Raw Signal Mx
#Estimate noise level: 5e-3 memu
#Loading data from file: dd144_dry-Hys-00.VHD
#Save data to file: dd144_dry.xye
#Extraction performed at: Wed Oct 12 13:39:32 2016
#Unit of B in data: Oe
#Changing unit by multiplying with factor: 0.0001
#Unit of M in data: memu
#Applied image correction factors to M by linear interpolation of following values
#14998.0	1.0
#15247.0	1.000156
#15497.0	1.000302
#15747.0	1.000527
#15997.0	1.000751
#16247.0	1.001191
#16497.0	1.001494
#16746.0	1.001865
#16996.0	1.002237
#17247.0	1.002688
#17496.0	1.003286
#17746.0	1.003738
#17996.0	1.004259
#18245.0	1.005007
#18495.0	1.005686
#18745.0	1.006367
#18995.0	1.007118

#Substracted file: dd144_dry.xye
#Using Slope: -1.257
#Rescaled file: dd144_dry_BGLinSub.xy
#Rescale Factor: 0.139623
#Sigma Scalefactor: 0.0
#B / T	M_scaled / kAm-1	sM_scaled / kAm-1	M_prescaling / memu	sM_prescaling / memu	M_raw / memu	sM_raw / memu
-0.0007	-1.56663	-0.0358108	-0.2187374	0.005	-0.2178575	0.005
0.0	0.2357	0.0358108	0.03290911	0.005	0.03290911	0.005
0.001	2.2405	0.0358108	0.3128248	0.005	0.3115678	0.005
0.0021	4.38006	0.0358108	0.6115559	0.005	0.6089162	0.005
0.0031	6.31922	0.0358108	0.8823065	0.005	0.8784098	0.005
0.0041	8.3038	0.0358108	1.1594	0.005	1.154245	0.005
0.0051	10.2582	0.0358108	1.43228	0.005	1.425867	0.005
0.0076	14.9242	0.0358108	2.08376	0.005	2.07421	0.005
0.01	19.3742	0.0358108	2.705073	0.005	2.692503	0.005
0.0126	23.6434	0.0358108	3.30116	0.005	3.28532	0.005
0.0151	27.656	0.0358108	3.8614	0.005	3.842422	0.005
0.0175	31.4258	0.0358108	4.38776	0.005	4.36576	0.005
0.02	35.0139	0.0358108	4.888739	0.005	4.863599	0.005
0.0225	38.394	0.0358108	5.36067	0.005	5.332383	0.005
0.025	41.5983	0.0358108	5.808058	0.005	5.776633	0.005
0.0275	44.6123	0.0358108	6.22889	0.005	6.194324	0.005
0.03	47.5136	0.0358108	6.633972	0.005	6.596262	0.005
0.0326	50.2517	0.0358108	7.01627	0.005	6.975296	0.005
0.035	52.8405	0.0358108	7.377731	0.005	7.333736	0.005
0.0375	55.3085	0.0358108	7.72233	0.005	7.675188	0.005
0.04	57.6868	0.0358108	8.054384	0.005	8.004104	0.005
0.0425	59.9512	0.0358108	8.37055	0.005	8.317126	0.005
0.0451	62.1303	0.0358108	8.6748	0.005	8.618108	0.005
0.0475	64.1958	0.0358108	8.96319	0.005	8.90348	0.005
0.05	66.1862	0.0358108	9.241086	0.005	9.178236	0.005
0.0525	68.0846	0.0358108	9.50616	0.005	9.440163	0.005
0.055	69.9258	0.0358108	9.763224	0.005	9.694089	0.005
0.0575	71.6936	0.0358108	10.0101	0.005	9.937778	0.005
0.06	73.4054	0.0358108	10.24906	0.005	10.17364	0.005
0.0625	75.0457	0.0358108	10.4781	0.005	10.39951	0.005
0.065	76.6196	0.0358108	10.6978	0.005	10.61613	0.005
0.0675	78.1504	0.0358108	10.9116	0.005	10.82672	0.005
0.07	79.6661	0.0358108	11.12319	0.005	11.0352	0.005
0.0725	81.0855	0.0358108	11.3214	0.005	11.23024	0.005
0.075	82.4892	0.0358108	11.5174	0.005	11.42309	0.005
0.0775	83.8345	0.0358108	11.7052	0.005	11.60777	0.005
0.08	85.088	0.0358108	11.88021	0.005	11.77965	0.005
0.0825	86.398	0.0358108	12.0631	0.005	11.95941	0.005
0.085	87.6477	0.0358108	12.2376	0.005	12.13076	0.005
0.0875	88.8296	0.0358108	12.4026	0.005	12.29264	0.005
0.09	90.0339	0.0358108	12.57077	0.005	12.45764	0.005
0.0925	91.1529	0.0358108	12.727	0.005	12.61074	0.005
0.095	92.2644	0.0358108	12.8822	0.005	12.76278	0.005
0.0975	93.3404	0.0358108	13.0324	0.005	12.90988	0.005
0.1	94.3814	0.0358108	13.17778	0.005	13.05208	0.005
0.15	111.12	0.0358108	15.51487	0.005	15.32632	0.005
0.2	122.821	0.0358108	17.14862	0.005	16.89722	0.005
0.25	131.733	0.0358108	18.39296	0.005	18.07871	0.005
0.3	138.89	0.0358108	19.39225	0.005	19.01515	0.005
0.35	144.891	0.0358108	20.23002	0.005	19.79007	0.005
0.4001	150.009	0.0358108	20.9447	0.005	20.44173	0.005
0.45	154.477	0.0358108	21.56848	0.005	21.00283	0.005
0.5	158.495	0.0358108	22.12956	0.005	21.50106	0.005
0.5501	162.105	0.0358108	22.6335	0.005	21.94205	0.005
0.6001	165.372	0.0358108	23.0896	0.005	22.33531	0.005
0.65	168.378	0.0358108	23.50944	0.005	22.69239	0.005
0.7	171.152	0.0358108	23.89672	0.005	23.01682	0.005
0.7501	173.693	0.0358108	24.2515	0.005	23.30859	0.005
0.8002	176.08	0.0358108	24.5848	0.005	23.57895	0.005
0.8501	178.358	0.0358108	24.9028	0.005	23.83421	0.005
0.9001	180.483	0.0358108	25.1995	0.005	24.06806	0.005
0.9501	182.492	0.0358108	25.48	0.005	24.28576	0.005
1.0002	184.387	0.0358108	25.7445	0.005	24.48729	0.005
1.1001	187.949	0.0358108	26.242	0.005	24.85913	0.005
1.2001	191.155	0.0358108	26.6896	0.005	25.18111	0.005
1.3001	194.14	0.0358108	27.1064	0.005	25.47217	0.005
1.4001	196.836	0.0358108	27.4828	0.005	25.72287	0.005
1.5001	199.354	0.0358108	27.8343	0.005	25.94864	0.005
1.6001	201.653	0.0358108	28.1553	0.005	26.12419	0.005
1.7001	203.979	0.0358108	28.48	0.005	26.28396	0.005
1.8001	206.054	0.0358108	28.7698	0.005	26.39422	0.005
1.9	208.164	0.0358108	29.0644	0.005	26.48759	0.005
1.8006	206.094	0.0358108	28.7753	0.005	26.39877	0.005
1.7005	203.996	0.0358108	28.4825	0.005	26.28572	0.005
1.6007	201.799	0.0358108	28.1757	0.005	26.14351	0.005
1.5005	199.378	0.0358108	27.8377	0.005	25.95144	0.005
1.4005	196.953	0.0358108	27.4991	0.005	25.73869	0.005
1.3004	194.261	0.0358108	27.1233	0.005	25.48869	0.005
1.2004	191.271	0.0358108	26.7058	0.005	25.19691	0.005
1.1003	188.094	0.0358108	26.2622	0.005	24.87915	0.005
1.0004	184.585	0.0358108	25.7722	0.005	24.51469	0.005
0.9503	182.645	0.0358108	25.5014	0.005	24.30683	0.005
0.9003	180.686	0.0358108	25.2278	0.005	24.09615	0.005
0.8502	178.57	0.0358108	24.9324	0.005	23.86372	0.005
0.8002	176.329	0.0358108	24.6196	0.005	23.61373	0.005
0.7503	173.956	0.0358108	24.2882	0.005	23.34512	0.005
0.7002	171.365	0.0358108	23.9265	0.005	23.04632	0.005
0.6502	168.659	0.0358108	23.5487	0.005	22.73137	0.005
0.6002	165.672	0.0358108	23.1316	0.005	22.3771	0.005
0.5502	162.413	0.0358108	22.6765	0.005	21.9849	0.005
0.5002	158.862	0.0358108	22.1807	0.005	21.55196	0.005
0.4502	154.906	0.0358108	21.6284	0.005	21.06252	0.005
0.4002	150.423	0.0358108	21.0024	0.005	20.49934	0.005
0.3502	145.317	0.0358108	20.2896	0.005	19.84941	0.005
0.3002	139.37	0.0358108	19.4592	0.005	19.08187	0.005
0.2502	132.18	0.0358108	18.4554	0.005	18.14087	0.005
0.2002	123.258	0.0358108	17.2096	0.005	16.95796	0.005
0.1502	111.575	0.0358108	15.5783	0.005	15.38953	0.005
0.1001	94.8476	0.0358108	13.2429	0.005	13.11705	0.005
0.0975	93.7631	0.0358108	13.0914	0.005	12.96889	0.005
0.095	92.6717	0.0358108	12.9391	0.005	12.81965	0.005
0.0926	91.5738	0.0358108	12.7858	0.005	12.66938	0.005
0.09	90.4364	0.0358108	12.62697	0.005	12.51384	0.005
0.0875	89.2596	0.0358108	12.4627	0.005	12.35267	0.005
0.085	88.0827	0.0358108	12.2983	0.005	12.1915	0.005
0.0825	86.8382	0.0358108	12.1246	0.005	12.02088	0.005
0.08	85.5758	0.0358108	11.94832	0.005	11.84776	0.005
0.0775	84.2833	0.0358108	11.7679	0.005	11.67044	0.005
0.075	82.9029	0.0358108	11.5751	0.005	11.48084	0.005
0.0725	81.5274	0.0358108	11.3831	0.005	11.29194	0.005
0.07	80.0991	0.0358108	11.18365	0.005	11.09566	0.005
0.0675	78.6006	0.0358108	10.9744	0.005	10.88958	0.005
0.065	77.0616	0.0358108	10.7595	0.005	10.67784	0.005
0.0625	75.4926	0.0358108	10.5405	0.005	10.46191	0.005
0.0601	73.8614	0.0358108	10.3127	0.005	10.23718	0.005
0.0576	72.1593	0.0358108	10.0751	0.005	10.00267	0.005
0.0551	70.3813	0.0358108	9.82682	0.005	9.757556	0.005
0.0526	68.5583	0.0358108	9.57229	0.005	9.506174	0.005
0.0501	66.6322	0.0358108	9.30336	0.005	9.240384	0.005
0.0476	64.6632	0.0358108	9.02844	0.005	8.968608	0.005
0.0451	62.6062	0.0358108	8.74125	0.005	8.684556	0.005
0.0426	60.4488	0.0358108	8.44002	0.005	8.386472	0.005
0.0401	58.2082	0.0358108	8.12718	0.005	8.076772	0.005
0.0376	55.8344	0.0358108	7.79574	0.005	7.74848	0.005
0.0351	53.3676	0.0358108	7.45133	0.005	7.407206	0.005
0.0326	50.7597	0.0358108	7.0872	0.005	7.046221	0.005
0.0301	48.0338	0.0358108	6.70661	0.005	6.668777	0.005
0.0276	45.1974	0.0358108	6.31058	0.005	6.275887	0.005
0.0251	42.1621	0.0358108	5.88679	0.005	5.855238	0.005
0.0226	38.9358	0.0358108	5.43632	0.005	5.407916	0.005
0.0201	35.5486	0.0358108	4.96339	0.005	4.938124	0.005
0.0176	31.9426	0.0358108	4.4599	0.005	4.437781	0.005
0.0151	28.1429	0.0358108	3.92939	0.005	3.910405	0.005
0.0126	24.1143	0.0358108	3.36691	0.005	3.351067	0.005
0.0101	19.8092	0.0358108	2.76581	0.005	2.753116	0.005
0.0076	15.2727	0.0358108	2.13241	0.005	2.122859	0.005
0.0051	10.4947	0.0358108	1.4653	0.005	1.458891	0.005
0.0041	8.52928	0.0358108	1.19088	0.005	1.185727	0.005
0.0031	6.51601	0.0358108	0.9097821	0.005	0.9058854	0.005
0.0021	4.48262	0.0358108	0.6258752	0.005	0.6232355	0.005
0.0011	2.43414	0.0358108	0.3398605	0.005	0.3384778	0.005
0.0	0.407393	0.0358108	0.05688125	0.005	0.05688125	0.005
-0.0007	-1.61324	-0.0358108	-0.2252445	0.005	-0.2243646	0.005
-0.0017	-3.64663	-0.0358108	-0.509152	0.005	-0.5070151	0.005
-0.0027	-5.65989	-0.0358108	-0.7902485	0.005	-0.7868546	0.005
-0.0037	-7.6631	-0.0358108	-1.06994	0.005	-1.065291	0.005
-0.0047	-9.65123	-0.0358108	-1.34753	0.005	-1.341622	0.005
-0.0072	-14.4619	-0.0358108	-2.0192	0.005	-2.010154	0.005
-0.0097	-19.0134	-0.0358108	-2.6547	0.005	-2.642512	0.005
-0.0122	-23.3688	-0.0358108	-3.26282	0.005	-3.247484	0.005
-0.0147	-27.4427	-0.0358108	-3.83162	0.005	-3.813147	0.005
-0.0172	-31.3103	-0.0358108	-4.37162	0.005	-4.350003	0.005
-0.0197	-34.9063	-0.0358108	-4.8737	0.005	-4.848941	0.005
-0.0222	-38.3212	-0.0358108	-5.3505	0.005	-5.322595	0.005
-0.0247	-41.5751	-0.0358108	-5.80483	0.005	-5.77378	0.005
-0.0272	-44.6379	-0.0358108	-6.23246	0.005	-6.198271	0.005
-0.0297	-47.5248	-0.0358108	-6.63554	0.005	-6.598206	0.005
-0.0322	-50.2657	-0.0358108	-7.01823	0.005	-6.977758	0.005
-0.0347	-52.9037	-0.0358108	-7.38656	0.005	-7.342938	0.005
-0.0372	-55.3956	-0.0358108	-7.73448	0.005	-7.687723	0.005
-0.0397	-57.7645	-0.0358108	-8.06523	0.005	-8.015331	0.005
-0.0422	-60.0478	-0.0358108	-8.38404	0.005	-8.330993	0.005
-0.0447	-62.2406	-0.0358108	-8.6902	0.005	-8.634013	0.005
-0.0472	-64.3102	-0.0358108	-8.97916	0.005	-8.919833	0.005
-0.0497	-66.3066	-0.0358108	-9.2579	0.005	-9.195425	0.005
-0.0522	-68.2452	-0.0358108	-9.52858	0.005	-9.46296	0.005
-0.0547	-70.0709	-0.0358108	-9.78349	0.005	-9.71473	0.005
-0.0572	-71.8211	-0.0358108	-10.0279	0.005	-9.955957	0.005
-0.0597	-73.5511	-0.0358108	-10.2694	0.005	-10.19436	0.005
-0.0623	-75.2041	-0.0358108	-10.5002	0.005	-10.42189	0.005
-0.0648	-76.8208	-0.0358108	-10.7259	0.005	-10.64447	0.005
-0.0673	-78.3524	-0.0358108	-10.9398	0.005	-10.85517	0.005
-0.0698	-79.8284	-0.0358108	-11.1459	0.005	-11.05812	0.005
-0.0723	-81.2765	-0.0358108	-11.348	0.005	-11.25716	0.005
-0.0748	-82.6774	-0.0358108	-11.5436	0.005	-11.44962	0.005
-0.0773	-84.0327	-0.0358108	-11.7329	0.005	-11.6357	0.005
-0.0798	-85.3427	-0.0358108	-11.9158	0.005	-11.81547	0.005
-0.0823	-86.6328	-0.0358108	-12.0959	0.005	-11.99245	0.005
-0.0848	-87.8598	-0.0358108	-12.2672	0.005	-12.16063	0.005
-0.0873	-89.0717	-0.0358108	-12.4364	0.005	-12.32669	0.005
-0.0898	-90.2434	-0.0358108	-12.6	0.005	-12.48715	0.005
-0.0923	-91.395	-0.0358108	-12.7608	0.005	-12.64479	0.005
-0.0948	-92.4938	-0.0358108	-12.9142	0.005	-12.79506	0.005
-0.0973	-93.5725	-0.0358108	-13.0648	0.005	-12.94254	0.005
-0.0998	-94.6361	-0.0358108	-13.2133	0.005	-13.08789	0.005
-0.1497	-111.399	-0.0358108	-15.5538	0.005	-15.36567	0.005
-0.1996	-123.16	-0.0358108	-17.1959	0.005	-16.94498	0.005
-0.2497	-132.068	-0.0358108	-18.4397	0.005	-18.12578	0.005
-0.2997	-139.225	-0.0358108	-19.4389	0.005	-19.0622	0.005
-0.3497	-145.17	-0.0358108	-20.269	0.005	-19.82938	0.005
-0.3997	-150.292	-0.0358108	-20.9842	0.005	-20.48176	0.005
-0.4498	-154.737	-0.0358108	-21.6047	0.005	-21.03934	0.005
-0.4998	-158.748	-0.0358108	-22.1648	0.005	-21.53651	0.005
-0.5497	-162.31	-0.0358108	-22.6622	0.005	-21.9712	0.005
-0.5998	-165.573	-0.0358108	-23.1177	0.005	-22.36375	0.005
-0.6498	-168.628	-0.0358108	-23.5443	0.005	-22.7275	0.005
-0.6998	-171.369	-0.0358108	-23.927	0.005	-23.04737	0.005
-0.7498	-173.934	-0.0358108	-24.2852	0.005	-23.34266	0.005
-0.7997	-176.33	-0.0358108	-24.6196	0.005	-23.61441	0.005
-0.8498	-178.617	-0.0358108	-24.9389	0.005	-23.87074	0.005
-0.8998	-180.684	-0.0358108	-25.2275	0.005	-24.0965	0.005
-0.9498	-182.66	-0.0358108	-25.5035	0.005	-24.30963	0.005
-0.9998	-184.587	-0.0358108	-25.7725	0.005	-24.51573	0.005
-1.0998	-188.14	-0.0358108	-26.2686	0.005	-24.88616	0.005
-1.1998	-191.326	-0.0358108	-26.7135	0.005	-25.20532	0.005
-1.2999	-194.259	-0.0358108	-27.123	0.005	-25.48903	0.005
-1.3998	-196.952	-0.0358108	-27.4989	0.005	-25.73936	0.005
-1.4998	-199.449	-0.0358108	-27.8476	0.005	-25.96234	0.005
-1.5997	-201.787	-0.0358108	-28.174	0.005	-26.14351	0.005
-1.6999	-204.062	-0.0358108	-28.4916	0.005	-26.2959	0.005
-1.7998	-206.224	-0.0358108	-28.7935	0.005	-26.41845	0.005
-1.8998	-208.287	-0.0358108	-29.0815	0.005	-26.50482	0.005
-1.8002	-206.212	-0.0358108	-28.7918	0.005	-26.41597	0.005
-1.7002	-204.088	-0.0358108	-28.4953	0.005	-26.29905	0.005
-1.6001	-201.824	-0.0358108	-28.1792	0.005	-26.14807	0.005
-1.5001	-199.455	-0.0358108	-27.8484	0.005	-25.96269	0.005
-1.4001	-197.08	-0.0358108	-27.5169	0.005	-25.75694	0.005
-1.3001	-194.362	-0.0358108	-27.1373	0.005	-25.50308	0.005
-1.2001	-191.46	-0.0358108	-26.7321	0.005	-25.22357	0.005
-1.1	-188.212	-0.0358108	-26.27869	0.005	-24.89599	0.005
-1.0	-184.727	-0.0358108	-25.79206	0.005	-24.53506	0.005
-0.95	-182.868	-0.0358108	-25.53256	0.005	-24.33841	0.005
-0.9	-180.852	-0.0358108	-25.25099	0.005	-24.11969	0.005
-0.8499	-178.721	-0.0358108	-24.9535	0.005	-23.88513	0.005
-0.7999	-176.495	-0.0358108	-24.6427	0.005	-23.63726	0.005
-0.7499	-174.099	-0.0358108	-24.3081	0.005	-23.36547	0.005
-0.7	-171.554	-0.0358108	-23.95288	0.005	-23.07298	0.005
-0.6499	-168.835	-0.0358108	-23.5732	0.005	-22.7563	0.005
-0.5999	-165.898	-0.0358108	-23.1631	0.005	-22.40905	0.005
-0.5499	-162.654	-0.0358108	-22.7102	0.005	-22.01896	0.005
-0.4999	-159.088	-0.0358108	-22.2123	0.005	-21.58392	0.005
-0.4499	-155.122	-0.0358108	-21.6586	0.005	-21.09307	0.005
-0.3998	-150.673	-0.0358108	-21.0373	0.005	-20.53479	0.005
-0.3499	-145.564	-0.0358108	-20.324	0.005	-19.88417	0.005
-0.2999	-139.609	-0.0358108	-19.4925	0.005	-19.11557	0.005
-0.2499	-132.422	-0.0358108	-18.4891	0.005	-18.17494	0.005
-0.1998	-123.508	-0.0358108	-17.2446	0.005	-16.99342	0.005
-0.1499	-111.778	-0.0358108	-15.6067	0.005	-15.41831	0.005
-0.0999	-94.9969	-0.0358108	-13.2637	0.005	-13.13814	0.005
-0.0973	-93.8946	-0.0358108	-13.1098	0.005	-12.9875	0.005
-0.0948	-92.8007	-0.0358108	-12.9571	0.005	-12.83791	0.005
-0.0923	-91.6968	-0.0358108	-12.803	0.005	-12.68693	0.005
-0.0898	-90.5527	-0.0358108	-12.6432	0.005	-12.53033	0.005
-0.0873	-89.3784	-0.0358108	-12.4792	0.005	-12.36951	0.005
-0.085	-88.2713	-0.0358108	-12.3247	0.005	-12.21783	0.005
-0.0823	-86.9015	-0.0358108	-12.1334	0.005	-12.02997	0.005
-0.0798	-85.6268	-0.0358108	-11.9554	0.005	-11.85513	0.005
-0.0773	-84.3293	-0.0358108	-11.7743	0.005	-11.67712	0.005
-0.075	-83.084	-0.0358108	-11.6004	0.005	-11.50613	0.005
-0.0723	-81.5734	-0.0358108	-11.3895	0.005	-11.29861	0.005
-0.0698	-80.1073	-0.0358108	-11.1848	0.005	-11.09705	0.005
-0.0673	-78.6139	-0.0358108	-10.9763	0.005	-10.89169	0.005
-0.065	-77.2099	-0.0358108	-10.7802	0.005	-10.69854	0.005
-0.0625	-75.6309	-0.0358108	-10.5598	0.005	-10.48123	0.005
-0.06	-73.9763	-0.0358108	-10.32877	0.005	-10.25335	0.005
-0.0573	-72.1262	-0.0358108	-10.0705	0.005	-9.998429	0.005
-0.055	-70.496	-0.0358108	-9.842844	0.005	-9.773709	0.005
-0.0523	-68.5002	-0.0358108	-9.56418	0.005	-9.498434	0.005
-0.0499	-66.7234	-0.0358108	-9.31609	0.005	-9.253367	0.005
-0.0475	-64.7454	-0.0358108	-9.03992	0.005	-8.980213	0.005
-0.045	-62.6783	-0.0358108	-8.751312	0.005	-8.694747	0.005
-0.0425	-60.5007	-0.0358108	-8.44727	0.005	-8.393847	0.005
-0.04	-58.2122	-0.0358108	-8.127747	0.005	-8.077467	0.005
-0.0372	-55.6497	-0.0358108	-7.76996	0.005	-7.723197	0.005
-0.0349	-53.3507	-0.0358108	-7.44897	0.005	-7.405097	0.005
-0.0324	-50.7427	-0.0358108	-7.08483	0.005	-7.0441	0.005
-0.0299	-47.9841	-0.0358108	-6.69967	0.005	-6.662085	0.005
-0.0275	-45.1033	-0.0358108	-6.29744	0.005	-6.262869	0.005
-0.0249	-42.0321	-0.0358108	-5.86863	0.005	-5.837333	0.005
-0.0224	-38.8033	-0.0358108	-5.41782	0.005	-5.389659	0.005
-0.0199	-35.4035	-0.0358108	-4.94313	0.005	-4.918112	0.005
-0.0174	-31.7798	-0.0358108	-4.43718	0.005	-4.415312	0.005
-0.0149	-27.9223	-0.0358108	-3.89859	0.005	-3.87986	0.005
-0.0124	-23.8334	-0.0358108	-3.32768	0.005	-3.312091	0.005
-0.0099	-19.5333	-0.0358108	-2.72729	0.005	-2.714842	0.005
-0.0074	-14.939	-0.0358108	-2.08582	0.005	-2.076515	0.005
-0.0049	-10.1107	-0.0358108	-1.41169	0.005	-1.405526	0.005
-0.0037	-7.73854	-0.0358108	-1.08047	0.005	-1.075824	0.005
-0.0028	-5.71359	-0.0358108	-0.797747	0.005	-0.7942274	0.005
-0.0017	-3.68687	-0.0358108	-0.5147699	0.005	-0.512633	0.005
-0.0007	-1.65347	-0.0358108	-0.2308624	0.005	-0.2299825	0.005
0.0	0.191122	0.0358108	0.02668498	0.005	0.02668498	0.005
0.001	2.21697	0.0358108	0.3095388	0.005	0.3082818	0.005
0.0021	4.50525	0.0358108	0.629035	0.005	0.6263953	0.005
0.003	6.3139	0.0358108	0.8815634	0.005	0.8777924	0.005
0.0041	8.55443	0.0358108	1.19439	0.005	1.189238	0.005
0.0051	10.4947	0.0358108	1.4653	0.005	1.458891	0.005
0.0076	15.2827	0.0358108	2.13382	0.005	2.124263	0.005
0.0101	19.8142	0.0358108	2.76651	0.005	2.753818	0.005
0.0125	24.1285	0.0358108	3.36889	0.005	3.353174	0.005
0.0151	28.2259	0.0358108	3.94098	0.005	3.921997	0.005
0.0175	32.0146	0.0358108	4.46996	0.005	4.447966	0.005
0.02	35.6382	0.0358108	4.975903	0.005	4.950763	0.005
0.0226	39.0389	0.0358108	5.45072	0.005	5.42231	0.005
0.0251	42.2552	0.0358108	5.89978	0.005	5.868228	0.005
0.0276	45.313	0.0358108	6.32672	0.005	6.292028	0.005
0.0301	48.1796	0.0358108	6.72696	0.005	6.689123	0.005
0.0325	50.9222	0.0358108	7.10989	0.005	7.069041	0.005
0.0351	53.5385	0.0358108	7.47518	0.005	7.431063	0.005
0.0376	56.0231	0.0358108	7.82209	0.005	7.774824	0.005
0.04	58.3809	0.0358108	8.151298	0.005	8.101018	0.005
0.0426	60.6323	0.0358108	8.46565	0.005	8.412097	0.005
0.0451	62.8276	0.0358108	8.77215	0.005	8.715459	0.005
0.0476	64.8969	0.0358108	9.06108	0.005	9.001243	0.005
0.0501	66.8787	0.0358108	9.33778	0.005	9.274809	0.005
0.0525	68.7837	0.0358108	9.60376	0.005	9.537772	0.005
0.055	70.6168	0.0358108	9.859703	0.005	9.790568	0.005
0.0575	72.3871	0.0358108	10.1069	0.005	10.0346	0.005
0.06	74.0972	0.0358108	10.34565	0.005	10.27023	0.005
0.0625	75.7188	0.0358108	10.5721	0.005	10.49349	0.005
0.065	77.3308	0.0358108	10.7971	0.005	10.71542	0.005
0.0675	78.8293	0.0358108	11.0064	0.005	10.92151	0.005
0.07	80.3382	0.0358108	11.21703	0.005	11.12904	0.005
0.0725	81.7789	0.0358108	11.4182	0.005	11.32706	0.005
0.075	83.1847	0.0358108	11.6145	0.005	11.52019	0.005
0.0775	84.5197	0.0358108	11.8009	0.005	11.70345	0.005
0.08	85.8248	0.0358108	11.98309	0.005	11.88253	0.005
0.0825	87.0945	0.0358108	12.1604	0.005	12.05666	0.005
0.085	88.3368	0.0358108	12.3338	0.005	12.22697	0.005
0.0875	89.5338	0.0358108	12.5009	0.005	12.39096	0.005
0.09	90.6979	0.0358108	12.66348	0.005	12.55035	0.005
0.0925	91.8294	0.0358108	12.8215	0.005	12.70519	0.005
0.095	92.9432	0.0358108	12.977	0.005	12.85756	0.005
0.0975	94.0346	0.0358108	13.1294	0.005	13.0068	0.005
0.1	95.0855	0.0358108	13.27609	0.005	13.15039	0.005
0.15	111.804	0.0358108	15.61037	0.005	15.42182	0.005
0.2001	123.516	0.0358108	17.2456	0.005	16.99412	0.005
0.25	132.39	0.0358108	18.48462	0.005	18.17037	0.005
0.3	139.529	0.0358108	19.48145	0.005	19.10435	0.005
0.3501	145.457	0.0358108	20.3091	0.005	19.86906	0.005
0.4001	150.56	0.0358108	21.0216	0.005	20.51864	0.005
0.45	155.033	0.0358108	21.64605	0.005	21.0804	0.005
0.5	158.978	0.0358108	22.19697	0.005	21.56847	0.005
0.5501	162.57	0.0358108	22.6985	0.005	22.00702	0.005
0.6001	165.895	0.0358108	23.1627	0.005	22.40835	0.005
0.6501	168.882	0.0358108	23.5798	0.005	22.76262	0.005
0.7	171.625	0.0358108	23.96272	0.005	23.08282	0.005
0.7501	174.171	0.0358108	24.3182	0.005	23.37531	0.005
0.8002	176.556	0.0358108	24.6512	0.005	23.64533	0.005
0.8501	178.768	0.0358108	24.96	0.005	23.89144	0.005
0.9001	180.905	0.0358108	25.2585	0.005	24.12705	0.005
0.9502	182.88	0.0358108	25.5342	0.005	24.33982	0.005
1.0002	184.839	0.0358108	25.8078	0.005	24.5505	0.005
1.1001	188.372	0.0358108	26.3009	0.005	24.91811	0.005
1.2001	191.555	0.0358108	26.7455	0.005	25.23693	0.005
1.3001	194.508	0.0358108	27.1577	0.005	25.52343	0.005
1.4001	197.156	0.0358108	27.5274	0.005	25.76747	0.005
1.5001	199.668	0.0358108	27.8782	0.005	25.99253	0.005
1.6001	202.008	0.0358108	28.2049	0.005	26.1737	0.005
1.7001	204.278	0.0358108	28.5219	0.005	26.32574	0.005
1.8001	206.442	0.0358108	28.824	0.005	26.44827	0.005
1.9001	208.429	0.0358108	29.1013	0.005	26.52412	0.005