File: data/monolayers/nanoparticles/Ol_CoFe_C/edx/data/DD67_3.txt
#FORMAT      : EMSA/MAS Spectral Data File
#VERSION     : 1.0
#TITLE       : Spectrum 1
#DATE        : 04-DEC-2018
#TIME        : 10:37
#OWNER       :
#NPOINTS     : 2048.
#NCOLUMNS    : 1.
#XUNITS      : keV
#YUNITS      : counts
#DATATYPE    : XY
#XPERCHAN    : 0.0100000
#OFFSET      : -0.200000
#SIGNALTYPE  : EDS
#CHOFFSET    : 20.0000
#LIVETIME    : 100
#REALTIME    : 116.385
#BEAMKV      : 20.0000
#PROBECUR    : 0.000000
#MAGCAM      : 1390.00
#XTILTSTGE   : 0.0
#AZIMANGLE   : 0.0
#ELEVANGLE   : 35.0
#XPOSITION mm: 0.0000
#YPOSITION mm: 0.0000
#ZPOSITION mm: 0.0000
##OXINSTPT   : 5
##OXINSTSTROB: 49.09
##OXINSTELEMS: 6,8,11,26,27
##OXINSTLABEL: 26, 6.404, Fe
##OXINSTLABEL: 26, 7.058, Fe
##OXINSTLABEL: 26, 0.705, Fe
##OXINSTLABEL: 26, 0.628, Fe
##OXINSTLABEL: 8, 0.525, O
##OXINSTLABEL: 27, 6.930, Co
##OXINSTLABEL: 27, 7.650, Co
##OXINSTLABEL: 27, 0.776, Co
##OXINSTLABEL: 27, 0.694, Co
##OXINSTLABEL: 27, 0.678, Co
##OXINSTLABEL: 6, 0.277, C
##OXINSTLABEL: 11, 1.041, Na
#SPECTRUM    : Spectral Data Starts Here
-0.20000, 0.
-0.18000, 0.
-0.16000, 0.
-0.14000, 0.
-0.12000, 0.
-0.10000, 0.
-0.08000, 4.
-0.06000, 30.
-0.04000, 441.
-0.02000, 2137.
0.00000, 4811.
0.02000, 5390.
0.04000, 2857.
0.06000, 776.
0.08000, 138.
0.10000, 62.
0.12000, 58.
0.14000, 50.
0.16000, 51.
0.18000, 43.
0.20000, 66.
0.22000, 118.
0.24000, 241.
0.26000, 419.
0.28000, 436.
0.30000, 260.
0.32000, 97.
0.34000, 51.
0.36000, 55.
0.38000, 52.
0.40000, 85.
0.42000, 106.
0.44000, 181.
0.46000, 398.
0.48000, 1159.
0.50000, 2340.
0.52000, 3247.
0.54000, 2661.
0.56000, 1352.
0.58000, 536.
0.60000, 372.
0.62000, 400.
0.64000, 426.
0.66000, 571.
0.68000, 931.
0.70000, 1185.
0.72000, 1114.
0.74000, 796.
0.76000, 641.
0.78000, 532.
0.80000, 430.
0.82000, 243.
0.84000, 126.
0.86000, 89.
0.88000, 64.
0.90000, 57.
0.92000, 58.
0.94000, 56.
0.96000, 62.
0.98000, 62.
1.00000, 76.
1.02000, 125.
1.04000, 128.
1.06000, 116.
1.08000, 105.
1.10000, 84.
1.12000, 85.
1.14000, 69.
1.16000, 84.
1.18000, 77.
1.20000, 78.
1.22000, 81.
1.24000, 98.
1.26000, 95.
1.28000, 89.
1.30000, 85.
1.32000, 91.
1.34000, 101.
1.36000, 104.
1.38000, 94.
1.40000, 109.
1.42000, 104.
1.44000, 108.
1.46000, 110.
1.48000, 118.
1.50000, 95.
1.52000, 124.
1.54000, 99.
1.56000, 117.
1.58000, 110.
1.60000, 109.
1.62000, 109.
1.64000, 123.
1.66000, 116.
1.68000, 117.
1.70000, 113.
1.72000, 132.
1.74000, 135.
1.76000, 121.
1.78000, 116.
1.80000, 126.
1.82000, 115.
1.84000, 120.
1.86000, 103.
1.88000, 124.
1.90000, 113.
1.92000, 106.
1.94000, 118.
1.96000, 122.
1.98000, 123.
2.00000, 118.
2.02000, 104.
2.04000, 121.
2.06000, 119.
2.08000, 120.
2.10000, 112.
2.12000, 116.
2.14000, 112.
2.16000, 120.
2.18000, 99.
2.20000, 119.
2.22000, 115.
2.24000, 128.
2.26000, 122.
2.28000, 120.
2.30000, 131.
2.32000, 110.
2.34000, 111.
2.36000, 117.
2.38000, 109.
2.40000, 107.
2.42000, 115.
2.44000, 116.
2.46000, 107.
2.48000, 114.
2.50000, 106.
2.52000, 112.
2.54000, 113.
2.56000, 104.
2.58000, 105.
2.60000, 125.
2.62000, 116.
2.64000, 116.
2.66000, 94.
2.68000, 100.
2.70000, 123.
2.72000, 109.
2.74000, 122.
2.76000, 110.
2.78000, 97.
2.80000, 103.
2.82000, 105.
2.84000, 109.
2.86000, 93.
2.88000, 109.
2.90000, 95.
2.92000, 109.
2.94000, 95.
2.96000, 98.
2.98000, 104.
3.00000, 101.
3.02000, 104.
3.04000, 102.
3.06000, 103.
3.08000, 96.
3.10000, 88.
3.12000, 92.
3.14000, 80.
3.16000, 99.
3.18000, 91.
3.20000, 85.
3.22000, 84.
3.24000, 78.
3.26000, 97.
3.28000, 83.
3.30000, 94.
3.32000, 99.
3.34000, 94.
3.36000, 88.
3.38000, 89.
3.40000, 86.
3.42000, 84.
3.44000, 86.
3.46000, 87.
3.48000, 81.
3.50000, 87.
3.52000, 76.
3.54000, 79.
3.56000, 86.
3.58000, 90.
3.60000, 88.
3.62000, 77.
3.64000, 93.
3.66000, 79.
3.68000, 82.
3.70000, 86.
3.72000, 92.
3.74000, 73.
3.76000, 75.
3.78000, 85.
3.80000, 85.
3.82000, 86.
3.84000, 81.
3.86000, 81.
3.88000, 72.
3.90000, 67.
3.92000, 72.
3.94000, 70.
3.96000, 64.
3.98000, 69.
4.00000, 69.
4.02000, 68.
4.04000, 64.
4.06000, 78.
4.08000, 64.
4.10000, 69.
4.12000, 82.
4.14000, 71.
4.16000, 67.
4.18000, 75.
4.20000, 67.
4.22000, 62.
4.24000, 70.
4.26000, 61.
4.28000, 63.
4.30000, 74.
4.32000, 55.
4.34000, 68.
4.36000, 68.
4.38000, 74.
4.40000, 70.
4.42000, 70.
4.44000, 63.
4.46000, 55.
4.48000, 56.
4.50000, 62.
4.52000, 63.
4.54000, 64.
4.56000, 67.
4.58000, 61.
4.60000, 66.
4.62000, 69.
4.64000, 80.
4.66000, 74.
4.68000, 58.
4.70000, 60.
4.72000, 62.
4.74000, 59.
4.76000, 48.
4.78000, 56.
4.80000, 61.
4.82000, 53.
4.84000, 60.
4.86000, 65.
4.88000, 47.
4.90000, 64.
4.92000, 65.
4.94000, 60.
4.96000, 60.
4.98000, 61.
5.00000, 45.
5.02000, 62.
5.04000, 56.
5.06000, 53.
5.08000, 59.
5.10000, 50.
5.12000, 51.
5.14000, 53.
5.16000, 49.
5.18000, 55.
5.20000, 54.
5.22000, 56.
5.24000, 54.
5.26000, 53.
5.28000, 69.
5.30000, 52.
5.32000, 55.
5.34000, 49.
5.36000, 47.
5.38000, 48.
5.40000, 58.
5.42000, 57.
5.44000, 48.
5.46000, 40.
5.48000, 46.
5.50000, 38.
5.52000, 46.
5.54000, 30.
5.56000, 47.
5.58000, 33.
5.60000, 44.
5.62000, 49.
5.64000, 50.
5.66000, 50.
5.68000, 44.
5.70000, 44.
5.72000, 45.
5.74000, 40.
5.76000, 49.
5.78000, 45.
5.80000, 39.
5.82000, 33.
5.84000, 32.
5.86000, 48.
5.88000, 57.
5.90000, 49.
5.92000, 41.
5.94000, 49.
5.96000, 44.
5.98000, 52.
6.00000, 38.
6.02000, 41.
6.04000, 46.
6.06000, 35.
6.08000, 34.
6.10000, 46.
6.12000, 47.
6.14000, 46.
6.16000, 51.
6.18000, 56.
6.20000, 56.
6.22000, 57.
6.24000, 107.
6.26000, 170.
6.28000, 305.
6.30000, 500.
6.32000, 823.
6.34000, 1175.
6.36000, 1606.
6.38000, 1946.
6.40000, 2099.
6.42000, 1923.
6.44000, 1729.
6.46000, 1217.
6.48000, 899.
6.50000, 501.
6.52000, 298.
6.54000, 156.
6.56000, 89.
6.58000, 58.
6.60000, 44.
6.62000, 43.
6.64000, 50.
6.66000, 37.
6.68000, 48.
6.70000, 40.
6.72000, 47.
6.74000, 53.
6.76000, 61.
6.78000, 80.
6.80000, 100.
6.82000, 208.
6.84000, 288.
6.86000, 397.
6.88000, 586.
6.90000, 742.
6.92000, 757.
6.94000, 767.
6.96000, 772.
6.98000, 664.
7.00000, 537.
7.02000, 485.
7.04000, 430.
7.06000, 370.
7.08000, 307.
7.10000, 265.
7.12000, 168.
7.14000, 115.
7.16000, 98.
7.18000, 65.
7.20000, 49.
7.22000, 34.
7.24000, 26.
7.26000, 25.
7.28000, 20.
7.30000, 28.
7.32000, 30.
7.34000, 25.
7.36000, 29.
7.38000, 31.
7.40000, 28.
7.42000, 34.
7.44000, 24.
7.46000, 25.
7.48000, 37.
7.50000, 45.
7.52000, 34.
7.54000, 49.
7.56000, 60.
7.58000, 65.
7.60000, 93.
7.62000, 112.
7.64000, 111.
7.66000, 101.
7.68000, 115.
7.70000, 88.
7.72000, 69.
7.74000, 51.
7.76000, 44.
7.78000, 27.
7.80000, 28.
7.82000, 27.
7.84000, 20.
7.86000, 31.
7.88000, 31.
7.90000, 26.
7.92000, 25.
7.94000, 22.
7.96000, 21.
7.98000, 21.
8.00000, 28.
8.02000, 23.
8.04000, 26.
8.06000, 25.
8.08000, 27.
8.10000, 19.
8.12000, 20.
8.14000, 23.
8.16000, 24.
8.18000, 25.
8.20000, 19.
8.22000, 18.
8.24000, 24.
8.26000, 25.
8.28000, 20.
8.30000, 20.
8.32000, 30.
8.34000, 25.
8.36000, 25.
8.38000, 21.
8.40000, 19.
8.42000, 19.
8.44000, 21.
8.46000, 21.
8.48000, 20.
8.50000, 27.
8.52000, 22.
8.54000, 28.
8.56000, 25.
8.58000, 20.
8.60000, 18.
8.62000, 28.
8.64000, 14.
8.66000, 29.
8.68000, 27.
8.70000, 17.
8.72000, 22.
8.74000, 28.
8.76000, 13.
8.78000, 23.
8.80000, 22.
8.82000, 23.
8.84000, 21.
8.86000, 26.
8.88000, 21.
8.90000, 15.
8.92000, 18.
8.94000, 14.
8.96000, 18.
8.98000, 16.
9.00000, 20.
9.02000, 20.
9.04000, 16.
9.06000, 18.
9.08000, 13.
9.10000, 19.
9.12000, 21.
9.14000, 20.
9.16000, 16.
9.18000, 22.
9.20000, 18.
9.22000, 18.
9.24000, 23.
9.26000, 20.
9.28000, 18.
9.30000, 21.
9.32000, 16.
9.34000, 16.
9.36000, 13.
9.38000, 18.
9.40000, 18.
9.42000, 15.
9.44000, 24.
9.46000, 19.
9.48000, 22.
9.50000, 19.
9.52000, 19.
9.54000, 19.
9.56000, 17.
9.58000, 19.
9.60000, 16.
9.62000, 23.
9.64000, 18.
9.66000, 18.
9.68000, 19.
9.70000, 20.
9.72000, 19.
9.74000, 17.
9.76000, 21.
9.78000, 14.
9.80000, 16.
9.82000, 14.
9.84000, 15.
9.86000, 21.
9.88000, 16.
9.90000, 18.
9.92000, 18.
9.94000, 22.
9.96000, 11.
9.98000, 24.
10.00000, 14.
10.02000, 23.
10.04000, 20.
10.06000, 12.
10.08000, 15.
10.10000, 14.
10.12000, 21.
10.14000, 16.
10.16000, 13.
10.18000, 12.
10.20000, 12.
10.22000, 19.
10.24000, 15.
10.26000, 15.
10.28000, 18.
10.30000, 13.
10.32000, 15.
10.34000, 18.
10.36000, 21.
10.38000, 19.
10.40000, 17.
10.42000, 14.
10.44000, 18.
10.46000, 17.
10.48000, 15.
10.50000, 14.
10.52000, 15.
10.54000, 12.
10.56000, 11.
10.58000, 13.
10.60000, 14.
10.62000, 9.
10.64000, 10.
10.66000, 11.
10.68000, 15.
10.70000, 13.
10.72000, 17.
10.74000, 11.
10.76000, 17.
10.78000, 16.
10.80000, 17.
10.82000, 11.
10.84000, 13.
10.86000, 13.
10.88000, 14.
10.90000, 11.
10.92000, 17.
10.94000, 11.
10.96000, 14.
10.98000, 18.
11.00000, 17.
11.02000, 15.
11.04000, 14.
11.06000, 15.
11.08000, 16.
11.10000, 10.
11.12000, 10.
11.14000, 15.
11.16000, 14.
11.18000, 17.
11.20000, 9.
11.22000, 13.
11.24000, 12.
11.26000, 9.
11.28000, 12.
11.30000, 13.
11.32000, 9.
11.34000, 12.
11.36000, 16.
11.38000, 15.
11.40000, 11.
11.42000, 15.
11.44000, 13.
11.46000, 9.
11.48000, 12.
11.50000, 13.
11.52000, 10.
11.54000, 13.
11.56000, 11.
11.58000, 12.
11.60000, 11.
11.62000, 11.
11.64000, 13.
11.66000, 14.
11.68000, 6.
11.70000, 12.
11.72000, 12.
11.74000, 9.
11.76000, 12.
11.78000, 9.
11.80000, 9.
11.82000, 11.
11.84000, 12.
11.86000, 12.
11.88000, 7.
11.90000, 11.
11.92000, 12.
11.94000, 11.
11.96000, 13.
11.98000, 13.
12.00000, 16.
12.02000, 11.
12.04000, 14.
12.06000, 9.
12.08000, 7.
12.10000, 12.
12.12000, 12.
12.14000, 14.
12.16000, 9.
12.18000, 11.
12.20000, 12.
12.22000, 8.
12.24000, 11.
12.26000, 9.
12.28000, 13.
12.30000, 15.
12.32000, 9.
12.34000, 16.
12.36000, 12.
12.38000, 13.
12.40000, 13.
12.42000, 10.
12.44000, 8.
12.46000, 10.
12.48000, 10.
12.50000, 8.
12.52000, 10.
12.54000, 11.
12.56000, 9.
12.58000, 7.
12.60000, 12.
12.62000, 11.
12.64000, 8.
12.66000, 9.
12.68000, 6.
12.70000, 12.
12.72000, 13.
12.74000, 8.
12.76000, 12.
12.78000, 10.
12.80000, 10.
12.82000, 12.
12.84000, 7.
12.86000, 7.
12.88000, 10.
12.90000, 9.
12.92000, 8.
12.94000, 11.
12.96000, 9.
12.98000, 9.
13.00000, 5.
13.02000, 11.
13.04000, 4.
13.06000, 8.
13.08000, 8.
13.10000, 7.
13.12000, 8.
13.14000, 6.
13.16000, 8.
13.18000, 10.
13.20000, 14.
13.22000, 13.
13.24000, 10.
13.26000, 12.
13.28000, 7.
13.30000, 10.
13.32000, 8.
13.34000, 9.
13.36000, 8.
13.38000, 7.
13.40000, 4.
13.42000, 9.
13.44000, 9.
13.46000, 9.
13.48000, 11.
13.50000, 8.
13.52000, 9.
13.54000, 5.
13.56000, 13.
13.58000, 10.
13.60000, 9.
13.62000, 8.
13.64000, 9.
13.66000, 6.
13.68000, 8.
13.70000, 8.
13.72000, 15.
13.74000, 10.
13.76000, 8.
13.78000, 11.
13.80000, 5.
13.82000, 10.
13.84000, 9.
13.86000, 11.
13.88000, 11.
13.90000, 5.
13.92000, 8.
13.94000, 6.
13.96000, 10.
13.98000, 9.
14.00000, 5.
14.02000, 10.
14.04000, 11.
14.06000, 5.
14.08000, 10.
14.10000, 7.
14.12000, 4.
14.14000, 7.
14.16000, 5.
14.18000, 6.
14.20000, 7.
14.22000, 6.
14.24000, 9.
14.26000, 7.
14.28000, 10.
14.30000, 7.
14.32000, 10.
14.34000, 6.
14.36000, 8.
14.38000, 11.
14.40000, 8.
14.42000, 7.
14.44000, 6.
14.46000, 5.
14.48000, 6.
14.50000, 6.
14.52000, 5.
14.54000, 3.
14.56000, 5.
14.58000, 4.
14.60000, 6.
14.62000, 5.
14.64000, 2.
14.66000, 9.
14.68000, 10.
14.70000, 5.
14.72000, 5.
14.74000, 7.
14.76000, 5.
14.78000, 6.
14.80000, 7.
14.82000, 4.
14.84000, 5.
14.86000, 8.
14.88000, 8.
14.90000, 5.
14.92000, 4.
14.94000, 3.
14.96000, 3.
14.98000, 5.
15.00000, 6.
15.02000, 6.
15.04000, 4.
15.06000, 6.
15.08000, 5.
15.10000, 2.
15.12000, 4.
15.14000, 8.
15.16000, 5.
15.18000, 7.
15.20000, 5.
15.22000, 5.
15.24000, 7.
15.26000, 3.
15.28000, 7.
15.30000, 3.
15.32000, 3.
15.34000, 7.
15.36000, 4.
15.38000, 6.
15.40000, 5.
15.42000, 9.
15.44000, 7.
15.46000, 2.
15.48000, 7.
15.50000, 1.
15.52000, 4.
15.54000, 7.
15.56000, 5.
15.58000, 5.
15.60000, 6.
15.62000, 4.
15.64000, 8.
15.66000, 8.
15.68000, 8.
15.70000, 5.
15.72000, 3.
15.74000, 4.
15.76000, 2.
15.78000, 2.
15.80000, 7.
15.82000, 3.
15.84000, 8.
15.86000, 5.
15.88000, 2.
15.90000, 9.
15.92000, 5.
15.94000, 9.
15.96000, 3.
15.98000, 3.
16.00000, 6.
16.02000, 2.
16.04000, 3.
16.06000, 5.
16.08000, 4.
16.10000, 4.
16.12000, 3.
16.14000, 7.
16.16000, 4.
16.18000, 5.
16.20000, 5.
16.22000, 4.
16.24000, 3.
16.26000, 5.
16.28000, 1.
16.30000, 1.
16.32000, 5.
16.34000, 5.
16.36000, 2.
16.38000, 3.
16.40000, 2.
16.42000, 3.
16.44000, 6.
16.46000, 6.
16.48000, 4.
16.50000, 8.
16.52000, 3.
16.54000, 3.
16.56000, 2.
16.58000, 1.
16.60000, 1.
16.62000, 4.
16.64000, 5.
16.66000, 4.
16.68000, 4.
16.70000, 3.
16.72000, 2.
16.74000, 3.
16.76000, 4.
16.78000, 2.
16.80000, 2.
16.82000, 5.
16.84000, 4.
16.86000, 4.
16.88000, 7.
16.90000, 3.
16.92000, 4.
16.94000, 6.
16.96000, 4.
16.98000, 3.
17.00000, 2.
17.02000, 3.
17.04000, 2.
17.06000, 2.
17.08000, 2.
17.10000, 2.
17.12000, 6.
17.14000, 2.
17.16000, 1.
17.18000, 1.
17.20000, 1.
17.22000, 2.
17.24000, 4.
17.26000, 2.
17.28000, 3.
17.30000, 1.
17.32000, 0.
17.34000, 2.
17.36000, 1.
17.38000, 0.
17.40000, 3.
17.42000, 1.
17.44000, 3.
17.46000, 1.
17.48000, 4.
17.50000, 2.
17.52000, 4.
17.54000, 5.
17.56000, 4.
17.58000, 3.
17.60000, 6.
17.62000, 3.
17.64000, 0.
17.66000, 5.
17.68000, 2.
17.70000, 1.
17.72000, 1.
17.74000, 5.
17.76000, 1.
17.78000, 0.
17.80000, 2.
17.82000, 0.
17.84000, 2.
17.86000, 2.
17.88000, 2.
17.90000, 0.
17.92000, 4.
17.94000, 3.
17.96000, 0.
17.98000, 3.
18.00000, 0.
18.02000, 1.
18.04000, 1.
18.06000, 2.
18.08000, 0.
18.10000, 2.
18.12000, 2.
18.14000, 0.
18.16000, 1.
18.18000, 2.
18.20000, 2.
18.22000, 1.
18.24000, 2.
18.26000, 3.
18.28000, 1.
18.30000, 0.
18.32000, 3.
18.34000, 2.
18.36000, 3.
18.38000, 1.
18.40000, 1.
18.42000, 1.
18.44000, 1.
18.46000, 0.
18.48000, 1.
18.50000, 0.
18.52000, 1.
18.54000, 0.
18.56000, 0.
18.58000, 2.
18.60000, 0.
18.62000, 0.
18.64000, 1.
18.66000, 0.
18.68000, 2.
18.70000, 2.
18.72000, 0.
18.74000, 1.
18.76000, 1.
18.78000, 0.
18.80000, 1.
18.82000, 1.
18.84000, 0.
18.86000, 1.
18.88000, 1.
18.90000, 1.
18.92000, 0.
18.94000, 1.
18.96000, 0.
18.98000, 0.
19.00000, 1.
19.02000, 0.
19.04000, 0.
19.06000, 2.
19.08000, 0.
19.10000, 0.
19.12000, 0.
19.14000, 0.
19.16000, 1.
19.18000, 1.
19.20000, 2.
19.22000, 1.
19.24000, 1.
19.26000, 1.
19.28000, 0.
19.30000, 0.
19.32000, 0.
19.34000, 1.
19.36000, 0.
19.38000, 0.
19.40000, 0.
19.42000, 1.
19.44000, 0.
19.46000, 0.
19.48000, 0.
19.50000, 0.
19.52000, 0.
19.54000, 0.
19.56000, 0.
19.58000, 0.
19.60000, 0.
19.62000, 0.
19.64000, 0.
19.66000, 0.
19.68000, 0.
19.70000, 0.
19.72000, 0.
19.74000, 0.
19.76000, 0.
19.78000, 0.
19.80000, 0.
19.82000, 0.
19.84000, 0.
19.86000, 0.
19.88000, 0.
19.90000, 0.
19.92000, 0.
19.94000, 0.
19.96000, 0.
19.98000, 0.
20.00000, 0.
20.02000, 0.
20.04000, 0.
20.06000, 0.
20.08000, 0.
20.10000, 0.
20.12000, 0.
20.14000, 0.
20.16000, 0.
20.18000, 0.
20.20000, 0.
20.22000, 0.
20.24000, 0.
20.26000, 0.
20.27000, 0.
#ENDOFDATA   :