File: data/monolayers/nanoparticles/Ol_CoFe_C/edx/data/DD67_1.txt
#FORMAT      : EMSA/MAS Spectral Data File
#VERSION     : 1.0
#TITLE       : Spectrum 1
#DATE        : 04-DEC-2018
#TIME        : 10:31
#OWNER       :
#NPOINTS     : 2048.
#NCOLUMNS    : 1.
#XUNITS      : keV
#YUNITS      : counts
#DATATYPE    : XY
#XPERCHAN    : 0.0100000
#OFFSET      : -0.200000
#SIGNALTYPE  : EDS
#CHOFFSET    : 20.0000
#LIVETIME    : 100
#REALTIME    : 115.622
#BEAMKV      : 20.0000
#PROBECUR    : 0.000000
#MAGCAM      : 1390.00
#XTILTSTGE   : 0.0
#AZIMANGLE   : 0.0
#ELEVANGLE   : 35.0
#XPOSITION mm: 0.0000
#YPOSITION mm: 0.0000
#ZPOSITION mm: 0.0000
##OXINSTPT   : 5
##OXINSTSTROB: 49.22
##OXINSTELEMS: 6,8,11,26,27
##OXINSTLABEL: 26, 6.404, Fe
##OXINSTLABEL: 26, 7.058, Fe
##OXINSTLABEL: 26, 0.705, Fe
##OXINSTLABEL: 26, 0.628, Fe
##OXINSTLABEL: 27, 6.930, Co
##OXINSTLABEL: 27, 7.650, Co
##OXINSTLABEL: 27, 0.776, Co
##OXINSTLABEL: 27, 0.694, Co
##OXINSTLABEL: 27, 0.678, Co
##OXINSTLABEL: 8, 0.525, O
##OXINSTLABEL: 6, 0.277, C
##OXINSTLABEL: 11, 1.041, Na
#SPECTRUM    : Spectral Data Starts Here
-0.20000, 0.
-0.18000, 1.
-0.16000, 0.
-0.14000, 1.
-0.12000, 3.
-0.10000, 0.
-0.08000, 7.
-0.06000, 41.
-0.04000, 469.
-0.02000, 2015.
0.00000, 4992.
0.02000, 5492.
0.04000, 2964.
0.06000, 806.
0.08000, 155.
0.10000, 98.
0.12000, 105.
0.14000, 134.
0.16000, 144.
0.18000, 151.
0.20000, 145.
0.22000, 137.
0.24000, 262.
0.26000, 399.
0.28000, 455.
0.30000, 262.
0.32000, 124.
0.34000, 76.
0.36000, 62.
0.38000, 66.
0.40000, 80.
0.42000, 99.
0.44000, 166.
0.46000, 359.
0.48000, 1034.
0.50000, 2258.
0.52000, 3068.
0.54000, 2553.
0.56000, 1295.
0.58000, 516.
0.60000, 351.
0.62000, 375.
0.64000, 393.
0.66000, 543.
0.68000, 829.
0.70000, 1091.
0.72000, 1048.
0.74000, 720.
0.76000, 535.
0.78000, 440.
0.80000, 397.
0.82000, 227.
0.84000, 119.
0.86000, 63.
0.88000, 62.
0.90000, 64.
0.92000, 54.
0.94000, 59.
0.96000, 56.
0.98000, 54.
1.00000, 72.
1.02000, 88.
1.04000, 109.
1.06000, 99.
1.08000, 94.
1.10000, 70.
1.12000, 72.
1.14000, 74.
1.16000, 73.
1.18000, 62.
1.20000, 66.
1.22000, 76.
1.24000, 74.
1.26000, 78.
1.28000, 91.
1.30000, 89.
1.32000, 89.
1.34000, 105.
1.36000, 76.
1.38000, 103.
1.40000, 101.
1.42000, 99.
1.44000, 95.
1.46000, 100.
1.48000, 110.
1.50000, 115.
1.52000, 109.
1.54000, 95.
1.56000, 105.
1.58000, 112.
1.60000, 102.
1.62000, 103.
1.64000, 109.
1.66000, 102.
1.68000, 116.
1.70000, 116.
1.72000, 99.
1.74000, 109.
1.76000, 124.
1.78000, 114.
1.80000, 120.
1.82000, 120.
1.84000, 122.
1.86000, 129.
1.88000, 115.
1.90000, 99.
1.92000, 122.
1.94000, 116.
1.96000, 106.
1.98000, 112.
2.00000, 118.
2.02000, 105.
2.04000, 111.
2.06000, 121.
2.08000, 113.
2.10000, 113.
2.12000, 121.
2.14000, 100.
2.16000, 109.
2.18000, 106.
2.20000, 106.
2.22000, 117.
2.24000, 109.
2.26000, 110.
2.28000, 107.
2.30000, 121.
2.32000, 111.
2.34000, 124.
2.36000, 108.
2.38000, 110.
2.40000, 108.
2.42000, 111.
2.44000, 109.
2.46000, 113.
2.48000, 109.
2.50000, 117.
2.52000, 125.
2.54000, 94.
2.56000, 120.
2.58000, 106.
2.60000, 106.
2.62000, 102.
2.64000, 109.
2.66000, 107.
2.68000, 81.
2.70000, 112.
2.72000, 98.
2.74000, 98.
2.76000, 96.
2.78000, 94.
2.80000, 103.
2.82000, 113.
2.84000, 86.
2.86000, 99.
2.88000, 107.
2.90000, 99.
2.92000, 112.
2.94000, 107.
2.96000, 97.
2.98000, 96.
3.00000, 84.
3.02000, 99.
3.04000, 95.
3.06000, 114.
3.08000, 99.
3.10000, 95.
3.12000, 90.
3.14000, 94.
3.16000, 85.
3.18000, 98.
3.20000, 80.
3.22000, 96.
3.24000, 93.
3.26000, 98.
3.28000, 88.
3.30000, 85.
3.32000, 93.
3.34000, 89.
3.36000, 84.
3.38000, 82.
3.40000, 77.
3.42000, 98.
3.44000, 92.
3.46000, 86.
3.48000, 75.
3.50000, 84.
3.52000, 78.
3.54000, 83.
3.56000, 80.
3.58000, 74.
3.60000, 72.
3.62000, 77.
3.64000, 68.
3.66000, 80.
3.68000, 79.
3.70000, 88.
3.72000, 72.
3.74000, 70.
3.76000, 75.
3.78000, 83.
3.80000, 74.
3.82000, 76.
3.84000, 74.
3.86000, 94.
3.88000, 67.
3.90000, 90.
3.92000, 71.
3.94000, 88.
3.96000, 79.
3.98000, 68.
4.00000, 70.
4.02000, 83.
4.04000, 62.
4.06000, 71.
4.08000, 75.
4.10000, 82.
4.12000, 77.
4.14000, 60.
4.16000, 64.
4.18000, 62.
4.20000, 64.
4.22000, 76.
4.24000, 70.
4.26000, 64.
4.28000, 73.
4.30000, 66.
4.32000, 54.
4.34000, 67.
4.36000, 64.
4.38000, 66.
4.40000, 67.
4.42000, 61.
4.44000, 67.
4.46000, 66.
4.48000, 61.
4.50000, 58.
4.52000, 62.
4.54000, 67.
4.56000, 55.
4.58000, 59.
4.60000, 68.
4.62000, 69.
4.64000, 74.
4.66000, 56.
4.68000, 68.
4.70000, 59.
4.72000, 65.
4.74000, 62.
4.76000, 60.
4.78000, 64.
4.80000, 49.
4.82000, 59.
4.84000, 65.
4.86000, 52.
4.88000, 67.
4.90000, 54.
4.92000, 64.
4.94000, 52.
4.96000, 51.
4.98000, 41.
5.00000, 57.
5.02000, 44.
5.04000, 52.
5.06000, 48.
5.08000, 45.
5.10000, 54.
5.12000, 50.
5.14000, 60.
5.16000, 53.
5.18000, 54.
5.20000, 56.
5.22000, 52.
5.24000, 50.
5.26000, 55.
5.28000, 51.
5.30000, 46.
5.32000, 53.
5.34000, 45.
5.36000, 43.
5.38000, 48.
5.40000, 56.
5.42000, 45.
5.44000, 56.
5.46000, 55.
5.48000, 41.
5.50000, 60.
5.52000, 46.
5.54000, 48.
5.56000, 60.
5.58000, 56.
5.60000, 46.
5.62000, 42.
5.64000, 43.
5.66000, 49.
5.68000, 38.
5.70000, 44.
5.72000, 47.
5.74000, 58.
5.76000, 43.
5.78000, 37.
5.80000, 43.
5.82000, 45.
5.84000, 51.
5.86000, 39.
5.88000, 42.
5.90000, 45.
5.92000, 48.
5.94000, 37.
5.96000, 33.
5.98000, 46.
6.00000, 40.
6.02000, 34.
6.04000, 35.
6.06000, 50.
6.08000, 49.
6.10000, 51.
6.12000, 53.
6.14000, 37.
6.16000, 50.
6.18000, 51.
6.20000, 63.
6.22000, 65.
6.24000, 90.
6.26000, 159.
6.28000, 280.
6.30000, 467.
6.32000, 794.
6.34000, 1156.
6.36000, 1578.
6.38000, 1914.
6.40000, 2130.
6.42000, 1908.
6.44000, 1596.
6.46000, 1244.
6.48000, 864.
6.50000, 495.
6.52000, 274.
6.54000, 164.
6.56000, 81.
6.58000, 68.
6.60000, 48.
6.62000, 40.
6.64000, 42.
6.66000, 39.
6.68000, 45.
6.70000, 46.
6.72000, 42.
6.74000, 50.
6.76000, 53.
6.78000, 73.
6.80000, 101.
6.82000, 186.
6.84000, 264.
6.86000, 399.
6.88000, 520.
6.90000, 686.
6.92000, 701.
6.94000, 686.
6.96000, 646.
6.98000, 566.
7.00000, 485.
7.02000, 405.
7.04000, 350.
7.06000, 314.
7.08000, 280.
7.10000, 224.
7.12000, 178.
7.14000, 141.
7.16000, 104.
7.18000, 64.
7.20000, 46.
7.22000, 28.
7.24000, 33.
7.26000, 35.
7.28000, 30.
7.30000, 30.
7.32000, 25.
7.34000, 33.
7.36000, 37.
7.38000, 14.
7.40000, 32.
7.42000, 29.
7.44000, 32.
7.46000, 31.
7.48000, 29.
7.50000, 26.
7.52000, 44.
7.54000, 39.
7.56000, 54.
7.58000, 75.
7.60000, 89.
7.62000, 113.
7.64000, 85.
7.66000, 96.
7.68000, 100.
7.70000, 90.
7.72000, 68.
7.74000, 38.
7.76000, 50.
7.78000, 31.
7.80000, 27.
7.82000, 30.
7.84000, 28.
7.86000, 25.
7.88000, 32.
7.90000, 24.
7.92000, 20.
7.94000, 17.
7.96000, 27.
7.98000, 26.
8.00000, 20.
8.02000, 26.
8.04000, 21.
8.06000, 23.
8.08000, 24.
8.10000, 23.
8.12000, 25.
8.14000, 17.
8.16000, 25.
8.18000, 22.
8.20000, 23.
8.22000, 17.
8.24000, 29.
8.26000, 23.
8.28000, 24.
8.30000, 21.
8.32000, 24.
8.34000, 23.
8.36000, 22.
8.38000, 26.
8.40000, 22.
8.42000, 23.
8.44000, 23.
8.46000, 20.
8.48000, 24.
8.50000, 21.
8.52000, 18.
8.54000, 21.
8.56000, 17.
8.58000, 16.
8.60000, 20.
8.62000, 22.
8.64000, 14.
8.66000, 17.
8.68000, 17.
8.70000, 17.
8.72000, 22.
8.74000, 17.
8.76000, 27.
8.78000, 23.
8.80000, 22.
8.82000, 23.
8.84000, 20.
8.86000, 22.
8.88000, 11.
8.90000, 18.
8.92000, 25.
8.94000, 17.
8.96000, 23.
8.98000, 17.
9.00000, 22.
9.02000, 18.
9.04000, 22.
9.06000, 25.
9.08000, 19.
9.10000, 14.
9.12000, 18.
9.14000, 16.
9.16000, 15.
9.18000, 20.
9.20000, 21.
9.22000, 24.
9.24000, 25.
9.26000, 15.
9.28000, 14.
9.30000, 13.
9.32000, 18.
9.34000, 16.
9.36000, 14.
9.38000, 14.
9.40000, 23.
9.42000, 14.
9.44000, 18.
9.46000, 18.
9.48000, 16.
9.50000, 22.
9.52000, 12.
9.54000, 22.
9.56000, 16.
9.58000, 11.
9.60000, 18.
9.62000, 11.
9.64000, 15.
9.66000, 13.
9.68000, 10.
9.70000, 14.
9.72000, 14.
9.74000, 17.
9.76000, 18.
9.78000, 18.
9.80000, 18.
9.82000, 21.
9.84000, 18.
9.86000, 15.
9.88000, 16.
9.90000, 15.
9.92000, 15.
9.94000, 17.
9.96000, 17.
9.98000, 16.
10.00000, 15.
10.02000, 21.
10.04000, 10.
10.06000, 15.
10.08000, 17.
10.10000, 12.
10.12000, 17.
10.14000, 16.
10.16000, 12.
10.18000, 19.
10.20000, 14.
10.22000, 17.
10.24000, 16.
10.26000, 11.
10.28000, 16.
10.30000, 14.
10.32000, 10.
10.34000, 11.
10.36000, 20.
10.38000, 13.
10.40000, 13.
10.42000, 17.
10.44000, 15.
10.46000, 18.
10.48000, 18.
10.50000, 11.
10.52000, 19.
10.54000, 14.
10.56000, 15.
10.58000, 12.
10.60000, 14.
10.62000, 15.
10.64000, 11.
10.66000, 11.
10.68000, 15.
10.70000, 10.
10.72000, 10.
10.74000, 11.
10.76000, 15.
10.78000, 10.
10.80000, 14.
10.82000, 14.
10.84000, 12.
10.86000, 14.
10.88000, 14.
10.90000, 17.
10.92000, 8.
10.94000, 14.
10.96000, 13.
10.98000, 9.
11.00000, 12.
11.02000, 10.
11.04000, 14.
11.06000, 8.
11.08000, 14.
11.10000, 8.
11.12000, 13.
11.14000, 10.
11.16000, 10.
11.18000, 16.
11.20000, 14.
11.22000, 13.
11.24000, 8.
11.26000, 12.
11.28000, 9.
11.30000, 10.
11.32000, 8.
11.34000, 12.
11.36000, 14.
11.38000, 9.
11.40000, 9.
11.42000, 17.
11.44000, 9.
11.46000, 12.
11.48000, 9.
11.50000, 8.
11.52000, 13.
11.54000, 12.
11.56000, 10.
11.58000, 14.
11.60000, 8.
11.62000, 11.
11.64000, 14.
11.66000, 13.
11.68000, 10.
11.70000, 12.
11.72000, 12.
11.74000, 9.
11.76000, 8.
11.78000, 10.
11.80000, 12.
11.82000, 12.
11.84000, 11.
11.86000, 9.
11.88000, 15.
11.90000, 13.
11.92000, 8.
11.94000, 10.
11.96000, 10.
11.98000, 12.
12.00000, 10.
12.02000, 11.
12.04000, 15.
12.06000, 9.
12.08000, 10.
12.10000, 8.
12.12000, 7.
12.14000, 9.
12.16000, 9.
12.18000, 8.
12.20000, 13.
12.22000, 10.
12.24000, 10.
12.26000, 9.
12.28000, 13.
12.30000, 13.
12.32000, 13.
12.34000, 10.
12.36000, 11.
12.38000, 8.
12.40000, 14.
12.42000, 6.
12.44000, 10.
12.46000, 10.
12.48000, 10.
12.50000, 8.
12.52000, 5.
12.54000, 8.
12.56000, 7.
12.58000, 10.
12.60000, 11.
12.62000, 9.
12.64000, 9.
12.66000, 6.
12.68000, 12.
12.70000, 5.
12.72000, 6.
12.74000, 10.
12.76000, 10.
12.78000, 11.
12.80000, 8.
12.82000, 6.
12.84000, 9.
12.86000, 7.
12.88000, 6.
12.90000, 5.
12.92000, 9.
12.94000, 7.
12.96000, 8.
12.98000, 6.
13.00000, 7.
13.02000, 8.
13.04000, 10.
13.06000, 10.
13.08000, 11.
13.10000, 9.
13.12000, 11.
13.14000, 6.
13.16000, 4.
13.18000, 8.
13.20000, 7.
13.22000, 7.
13.24000, 10.
13.26000, 8.
13.28000, 7.
13.30000, 9.
13.32000, 11.
13.34000, 6.
13.36000, 7.
13.38000, 9.
13.40000, 7.
13.42000, 11.
13.44000, 5.
13.46000, 5.
13.48000, 7.
13.50000, 8.
13.52000, 9.
13.54000, 7.
13.56000, 5.
13.58000, 4.
13.60000, 5.
13.62000, 7.
13.64000, 3.
13.66000, 8.
13.68000, 10.
13.70000, 7.
13.72000, 5.
13.74000, 6.
13.76000, 7.
13.78000, 5.
13.80000, 6.
13.82000, 3.
13.84000, 7.
13.86000, 4.
13.88000, 9.
13.90000, 7.
13.92000, 6.
13.94000, 6.
13.96000, 11.
13.98000, 5.
14.00000, 8.
14.02000, 5.
14.04000, 8.
14.06000, 4.
14.08000, 5.
14.10000, 4.
14.12000, 5.
14.14000, 7.
14.16000, 8.
14.18000, 4.
14.20000, 7.
14.22000, 5.
14.24000, 6.
14.26000, 4.
14.28000, 6.
14.30000, 6.
14.32000, 6.
14.34000, 3.
14.36000, 8.
14.38000, 10.
14.40000, 8.
14.42000, 8.
14.44000, 5.
14.46000, 6.
14.48000, 8.
14.50000, 10.
14.52000, 4.
14.54000, 2.
14.56000, 5.
14.58000, 8.
14.60000, 6.
14.62000, 8.
14.64000, 5.
14.66000, 6.
14.68000, 6.
14.70000, 3.
14.72000, 6.
14.74000, 5.
14.76000, 4.
14.78000, 6.
14.80000, 6.
14.82000, 4.
14.84000, 5.
14.86000, 6.
14.88000, 5.
14.90000, 4.
14.92000, 3.
14.94000, 3.
14.96000, 5.
14.98000, 3.
15.00000, 4.
15.02000, 4.
15.04000, 9.
15.06000, 7.
15.08000, 3.
15.10000, 6.
15.12000, 4.
15.14000, 5.
15.16000, 7.
15.18000, 4.
15.20000, 3.
15.22000, 3.
15.24000, 2.
15.26000, 5.
15.28000, 2.
15.30000, 3.
15.32000, 1.
15.34000, 6.
15.36000, 3.
15.38000, 2.
15.40000, 9.
15.42000, 7.
15.44000, 6.
15.46000, 1.
15.48000, 4.
15.50000, 4.
15.52000, 4.
15.54000, 2.
15.56000, 3.
15.58000, 7.
15.60000, 9.
15.62000, 4.
15.64000, 5.
15.66000, 3.
15.68000, 4.
15.70000, 6.
15.72000, 4.
15.74000, 4.
15.76000, 2.
15.78000, 4.
15.80000, 4.
15.82000, 2.
15.84000, 4.
15.86000, 5.
15.88000, 3.
15.90000, 5.
15.92000, 3.
15.94000, 2.
15.96000, 0.
15.98000, 2.
16.00000, 4.
16.02000, 3.
16.04000, 5.
16.06000, 5.
16.08000, 3.
16.10000, 3.
16.12000, 4.
16.14000, 4.
16.16000, 2.
16.18000, 2.
16.20000, 4.
16.22000, 1.
16.24000, 2.
16.26000, 1.
16.28000, 2.
16.30000, 4.
16.32000, 3.
16.34000, 3.
16.36000, 3.
16.38000, 2.
16.40000, 4.
16.42000, 5.
16.44000, 4.
16.46000, 0.
16.48000, 2.
16.50000, 5.
16.52000, 1.
16.54000, 2.
16.56000, 1.
16.58000, 5.
16.60000, 1.
16.62000, 0.
16.64000, 4.
16.66000, 4.
16.68000, 2.
16.70000, 3.
16.72000, 2.
16.74000, 0.
16.76000, 4.
16.78000, 1.
16.80000, 6.
16.82000, 1.
16.84000, 1.
16.86000, 1.
16.88000, 4.
16.90000, 4.
16.92000, 1.
16.94000, 3.
16.96000, 2.
16.98000, 1.
17.00000, 4.
17.02000, 0.
17.04000, 6.
17.06000, 1.
17.08000, 4.
17.10000, 3.
17.12000, 1.
17.14000, 2.
17.16000, 3.
17.18000, 3.
17.20000, 2.
17.22000, 2.
17.24000, 1.
17.26000, 2.
17.28000, 2.
17.30000, 4.
17.32000, 2.
17.34000, 3.
17.36000, 2.
17.38000, 0.
17.40000, 2.
17.42000, 1.
17.44000, 3.
17.46000, 2.
17.48000, 2.
17.50000, 4.
17.52000, 2.
17.54000, 1.
17.56000, 3.
17.58000, 0.
17.60000, 1.
17.62000, 1.
17.64000, 1.
17.66000, 0.
17.68000, 1.
17.70000, 3.
17.72000, 0.
17.74000, 1.
17.76000, 0.
17.78000, 5.
17.80000, 2.
17.82000, 1.
17.84000, 2.
17.86000, 1.
17.88000, 4.
17.90000, 1.
17.92000, 0.
17.94000, 2.
17.96000, 2.
17.98000, 2.
18.00000, 0.
18.02000, 2.
18.04000, 1.
18.06000, 0.
18.08000, 1.
18.10000, 1.
18.12000, 2.
18.14000, 2.
18.16000, 0.
18.18000, 2.
18.20000, 0.
18.22000, 2.
18.24000, 0.
18.26000, 1.
18.28000, 1.
18.30000, 0.
18.32000, 0.
18.34000, 0.
18.36000, 3.
18.38000, 1.
18.40000, 1.
18.42000, 2.
18.44000, 1.
18.46000, 0.
18.48000, 1.
18.50000, 1.
18.52000, 0.
18.54000, 1.
18.56000, 0.
18.58000, 0.
18.60000, 0.
18.62000, 1.
18.64000, 0.
18.66000, 1.
18.68000, 0.
18.70000, 0.
18.72000, 0.
18.74000, 0.
18.76000, 0.
18.78000, 2.
18.80000, 0.
18.82000, 0.
18.84000, 0.
18.86000, 1.
18.88000, 1.
18.90000, 1.
18.92000, 0.
18.94000, 0.
18.96000, 0.
18.98000, 0.
19.00000, 0.
19.02000, 0.
19.04000, 0.
19.06000, 0.
19.08000, 0.
19.10000, 0.
19.12000, 0.
19.14000, 0.
19.16000, 0.
19.18000, 0.
19.20000, 0.
19.22000, 0.
19.24000, 0.
19.26000, 0.
19.28000, 0.
19.30000, 0.
19.32000, 0.
19.34000, 0.
19.36000, 0.
19.38000, 0.
19.40000, 0.
19.42000, 0.
19.44000, 0.
19.46000, 0.
19.48000, 0.
19.50000, 0.
19.52000, 0.
19.54000, 0.
19.56000, 0.
19.58000, 0.
19.60000, 0.
19.62000, 0.
19.64000, 0.
19.66000, 0.
19.68000, 0.
19.70000, 0.
19.72000, 0.
19.74000, 0.
19.76000, 0.
19.78000, 0.
19.80000, 0.
19.82000, 0.
19.84000, 0.
19.86000, 0.
19.88000, 0.
19.90000, 0.
19.92000, 0.
19.94000, 0.
19.96000, 0.
19.98000, 0.
20.00000, 0.
20.02000, 0.
20.04000, 0.
20.06000, 0.
20.08000, 0.
20.10000, 0.
20.12000, 0.
20.14000, 0.
20.16000, 0.
20.18000, 0.
20.20000, 0.
20.22000, 0.
20.24000, 0.
20.26000, 0.
20.27000, 0.
#ENDOFDATA   :