File: data/monolayers/nanoparticles/Ol_CoFe_C/edx/data/DD67_4.txt
#FORMAT      : EMSA/MAS Spectral Data File
#VERSION     : 1.0
#TITLE       : Spectrum 1
#DATE        : 04-DEC-2018
#TIME        : 10:39
#OWNER       :
#NPOINTS     : 2048.
#NCOLUMNS    : 1.
#XUNITS      : keV
#YUNITS      : counts
#DATATYPE    : XY
#XPERCHAN    : 0.0100000
#OFFSET      : -0.200000
#SIGNALTYPE  : EDS
#CHOFFSET    : 20.0000
#LIVETIME    : 100
#REALTIME    : 114.872
#BEAMKV      : 20.0000
#PROBECUR    : 0.000000
#MAGCAM      : 1390.00
#XTILTSTGE   : 0.0
#AZIMANGLE   : 0.0
#ELEVANGLE   : 35.0
#XPOSITION mm: 0.0000
#YPOSITION mm: 0.0000
#ZPOSITION mm: 0.0000
##OXINSTPT   : 5
##OXINSTSTROB: 49.12
##OXINSTELEMS: 6,8,11,26,27
##OXINSTLABEL: 26, 6.404, Fe
##OXINSTLABEL: 26, 7.058, Fe
##OXINSTLABEL: 26, 0.705, Fe
##OXINSTLABEL: 26, 0.628, Fe
##OXINSTLABEL: 8, 0.525, O
##OXINSTLABEL: 27, 6.930, Co
##OXINSTLABEL: 27, 7.650, Co
##OXINSTLABEL: 27, 0.776, Co
##OXINSTLABEL: 27, 0.694, Co
##OXINSTLABEL: 27, 0.678, Co
##OXINSTLABEL: 6, 0.277, C
##OXINSTLABEL: 11, 1.041, Na
#SPECTRUM    : Spectral Data Starts Here
-0.20000, 0.
-0.18000, 0.
-0.16000, 0.
-0.14000, 0.
-0.12000, 0.
-0.10000, 1.
-0.08000, 5.
-0.06000, 41.
-0.04000, 423.
-0.02000, 2039.
0.00000, 4733.
0.02000, 5264.
0.04000, 2933.
0.06000, 819.
0.08000, 124.
0.10000, 37.
0.12000, 32.
0.14000, 29.
0.16000, 26.
0.18000, 33.
0.20000, 44.
0.22000, 71.
0.24000, 142.
0.26000, 266.
0.28000, 265.
0.30000, 178.
0.32000, 76.
0.34000, 45.
0.36000, 41.
0.38000, 43.
0.40000, 50.
0.42000, 72.
0.44000, 126.
0.46000, 287.
0.48000, 836.
0.50000, 1771.
0.52000, 2392.
0.54000, 1960.
0.56000, 985.
0.58000, 372.
0.60000, 250.
0.62000, 271.
0.64000, 285.
0.66000, 421.
0.68000, 624.
0.70000, 869.
0.72000, 796.
0.74000, 569.
0.76000, 417.
0.78000, 348.
0.80000, 265.
0.82000, 172.
0.84000, 89.
0.86000, 55.
0.88000, 46.
0.90000, 38.
0.92000, 39.
0.94000, 32.
0.96000, 39.
0.98000, 45.
1.00000, 63.
1.02000, 78.
1.04000, 90.
1.06000, 72.
1.08000, 69.
1.10000, 61.
1.12000, 53.
1.14000, 54.
1.16000, 57.
1.18000, 50.
1.20000, 61.
1.22000, 60.
1.24000, 53.
1.26000, 78.
1.28000, 65.
1.30000, 60.
1.32000, 71.
1.34000, 76.
1.36000, 65.
1.38000, 70.
1.40000, 74.
1.42000, 72.
1.44000, 73.
1.46000, 90.
1.48000, 88.
1.50000, 79.
1.52000, 93.
1.54000, 93.
1.56000, 88.
1.58000, 86.
1.60000, 93.
1.62000, 95.
1.64000, 84.
1.66000, 97.
1.68000, 103.
1.70000, 112.
1.72000, 91.
1.74000, 95.
1.76000, 113.
1.78000, 108.
1.80000, 125.
1.82000, 114.
1.84000, 114.
1.86000, 99.
1.88000, 91.
1.90000, 96.
1.92000, 100.
1.94000, 103.
1.96000, 102.
1.98000, 116.
2.00000, 91.
2.02000, 99.
2.04000, 107.
2.06000, 92.
2.08000, 97.
2.10000, 104.
2.12000, 112.
2.14000, 103.
2.16000, 118.
2.18000, 115.
2.20000, 110.
2.22000, 107.
2.24000, 101.
2.26000, 109.
2.28000, 106.
2.30000, 101.
2.32000, 110.
2.34000, 113.
2.36000, 106.
2.38000, 115.
2.40000, 97.
2.42000, 109.
2.44000, 105.
2.46000, 107.
2.48000, 109.
2.50000, 92.
2.52000, 107.
2.54000, 110.
2.56000, 107.
2.58000, 115.
2.60000, 106.
2.62000, 99.
2.64000, 103.
2.66000, 99.
2.68000, 93.
2.70000, 98.
2.72000, 113.
2.74000, 97.
2.76000, 91.
2.78000, 106.
2.80000, 94.
2.82000, 88.
2.84000, 93.
2.86000, 90.
2.88000, 94.
2.90000, 105.
2.92000, 105.
2.94000, 98.
2.96000, 86.
2.98000, 95.
3.00000, 100.
3.02000, 95.
3.04000, 101.
3.06000, 105.
3.08000, 84.
3.10000, 101.
3.12000, 85.
3.14000, 96.
3.16000, 92.
3.18000, 85.
3.20000, 80.
3.22000, 84.
3.24000, 87.
3.26000, 91.
3.28000, 81.
3.30000, 83.
3.32000, 96.
3.34000, 91.
3.36000, 82.
3.38000, 87.
3.40000, 86.
3.42000, 79.
3.44000, 91.
3.46000, 90.
3.48000, 86.
3.50000, 95.
3.52000, 93.
3.54000, 70.
3.56000, 77.
3.58000, 85.
3.60000, 99.
3.62000, 90.
3.64000, 85.
3.66000, 76.
3.68000, 83.
3.70000, 82.
3.72000, 81.
3.74000, 79.
3.76000, 75.
3.78000, 74.
3.80000, 75.
3.82000, 79.
3.84000, 90.
3.86000, 75.
3.88000, 83.
3.90000, 81.
3.92000, 85.
3.94000, 76.
3.96000, 84.
3.98000, 84.
4.00000, 73.
4.02000, 72.
4.04000, 81.
4.06000, 77.
4.08000, 75.
4.10000, 71.
4.12000, 70.
4.14000, 74.
4.16000, 79.
4.18000, 72.
4.20000, 59.
4.22000, 75.
4.24000, 73.
4.26000, 65.
4.28000, 76.
4.30000, 69.
4.32000, 77.
4.34000, 67.
4.36000, 69.
4.38000, 68.
4.40000, 58.
4.42000, 67.
4.44000, 58.
4.46000, 65.
4.48000, 61.
4.50000, 69.
4.52000, 62.
4.54000, 74.
4.56000, 65.
4.58000, 65.
4.60000, 65.
4.62000, 75.
4.64000, 77.
4.66000, 79.
4.68000, 65.
4.70000, 71.
4.72000, 64.
4.74000, 58.
4.76000, 63.
4.78000, 58.
4.80000, 66.
4.82000, 59.
4.84000, 62.
4.86000, 67.
4.88000, 59.
4.90000, 61.
4.92000, 47.
4.94000, 63.
4.96000, 55.
4.98000, 65.
5.00000, 52.
5.02000, 50.
5.04000, 46.
5.06000, 60.
5.08000, 58.
5.10000, 48.
5.12000, 51.
5.14000, 55.
5.16000, 47.
5.18000, 52.
5.20000, 57.
5.22000, 57.
5.24000, 43.
5.26000, 58.
5.28000, 61.
5.30000, 58.
5.32000, 51.
5.34000, 47.
5.36000, 46.
5.38000, 56.
5.40000, 45.
5.42000, 45.
5.44000, 52.
5.46000, 55.
5.48000, 44.
5.50000, 47.
5.52000, 48.
5.54000, 60.
5.56000, 46.
5.58000, 46.
5.60000, 53.
5.62000, 66.
5.64000, 49.
5.66000, 48.
5.68000, 50.
5.70000, 54.
5.72000, 51.
5.74000, 39.
5.76000, 47.
5.78000, 53.
5.80000, 49.
5.82000, 44.
5.84000, 46.
5.86000, 44.
5.88000, 48.
5.90000, 43.
5.92000, 37.
5.94000, 49.
5.96000, 45.
5.98000, 43.
6.00000, 47.
6.02000, 44.
6.04000, 48.
6.06000, 33.
6.08000, 40.
6.10000, 48.
6.12000, 41.
6.14000, 50.
6.16000, 46.
6.18000, 43.
6.20000, 52.
6.22000, 73.
6.24000, 78.
6.26000, 171.
6.28000, 280.
6.30000, 510.
6.32000, 905.
6.34000, 1275.
6.36000, 1722.
6.38000, 1941.
6.40000, 2126.
6.42000, 2040.
6.44000, 1664.
6.46000, 1328.
6.48000, 851.
6.50000, 549.
6.52000, 258.
6.54000, 171.
6.56000, 86.
6.58000, 58.
6.60000, 44.
6.62000, 44.
6.64000, 41.
6.66000, 32.
6.68000, 54.
6.70000, 34.
6.72000, 51.
6.74000, 46.
6.76000, 52.
6.78000, 79.
6.80000, 119.
6.82000, 196.
6.84000, 278.
6.86000, 452.
6.88000, 586.
6.90000, 659.
6.92000, 776.
6.94000, 729.
6.96000, 662.
6.98000, 630.
7.00000, 543.
7.02000, 396.
7.04000, 410.
7.06000, 330.
7.08000, 303.
7.10000, 255.
7.12000, 212.
7.14000, 152.
7.16000, 105.
7.18000, 80.
7.20000, 45.
7.22000, 39.
7.24000, 31.
7.26000, 40.
7.28000, 34.
7.30000, 32.
7.32000, 34.
7.34000, 23.
7.36000, 27.
7.38000, 25.
7.40000, 34.
7.42000, 27.
7.44000, 23.
7.46000, 20.
7.48000, 36.
7.50000, 36.
7.52000, 58.
7.54000, 55.
7.56000, 58.
7.58000, 74.
7.60000, 84.
7.62000, 98.
7.64000, 104.
7.66000, 102.
7.68000, 90.
7.70000, 84.
7.72000, 78.
7.74000, 53.
7.76000, 41.
7.78000, 40.
7.80000, 23.
7.82000, 18.
7.84000, 25.
7.86000, 33.
7.88000, 24.
7.90000, 30.
7.92000, 23.
7.94000, 21.
7.96000, 21.
7.98000, 20.
8.00000, 25.
8.02000, 18.
8.04000, 23.
8.06000, 28.
8.08000, 20.
8.10000, 24.
8.12000, 30.
8.14000, 19.
8.16000, 29.
8.18000, 24.
8.20000, 30.
8.22000, 22.
8.24000, 21.
8.26000, 22.
8.28000, 21.
8.30000, 18.
8.32000, 27.
8.34000, 19.
8.36000, 21.
8.38000, 34.
8.40000, 21.
8.42000, 25.
8.44000, 16.
8.46000, 21.
8.48000, 24.
8.50000, 21.
8.52000, 23.
8.54000, 25.
8.56000, 18.
8.58000, 15.
8.60000, 27.
8.62000, 33.
8.64000, 21.
8.66000, 23.
8.68000, 19.
8.70000, 21.
8.72000, 22.
8.74000, 19.
8.76000, 21.
8.78000, 22.
8.80000, 25.
8.82000, 20.
8.84000, 16.
8.86000, 16.
8.88000, 23.
8.90000, 21.
8.92000, 20.
8.94000, 22.
8.96000, 28.
8.98000, 15.
9.00000, 23.
9.02000, 17.
9.04000, 12.
9.06000, 16.
9.08000, 19.
9.10000, 17.
9.12000, 21.
9.14000, 18.
9.16000, 15.
9.18000, 27.
9.20000, 22.
9.22000, 19.
9.24000, 22.
9.26000, 21.
9.28000, 13.
9.30000, 17.
9.32000, 22.
9.34000, 21.
9.36000, 19.
9.38000, 15.
9.40000, 13.
9.42000, 18.
9.44000, 15.
9.46000, 16.
9.48000, 14.
9.50000, 21.
9.52000, 17.
9.54000, 24.
9.56000, 12.
9.58000, 13.
9.60000, 16.
9.62000, 17.
9.64000, 19.
9.66000, 22.
9.68000, 23.
9.70000, 18.
9.72000, 19.
9.74000, 22.
9.76000, 14.
9.78000, 19.
9.80000, 19.
9.82000, 18.
9.84000, 19.
9.86000, 20.
9.88000, 12.
9.90000, 16.
9.92000, 18.
9.94000, 15.
9.96000, 14.
9.98000, 17.
10.00000, 18.
10.02000, 16.
10.04000, 16.
10.06000, 19.
10.08000, 13.
10.10000, 15.
10.12000, 14.
10.14000, 20.
10.16000, 15.
10.18000, 11.
10.20000, 14.
10.22000, 20.
10.24000, 19.
10.26000, 11.
10.28000, 20.
10.30000, 16.
10.32000, 15.
10.34000, 18.
10.36000, 14.
10.38000, 12.
10.40000, 16.
10.42000, 20.
10.44000, 19.
10.46000, 18.
10.48000, 16.
10.50000, 16.
10.52000, 14.
10.54000, 11.
10.56000, 18.
10.58000, 18.
10.60000, 18.
10.62000, 15.
10.64000, 16.
10.66000, 17.
10.68000, 13.
10.70000, 15.
10.72000, 15.
10.74000, 13.
10.76000, 16.
10.78000, 11.
10.80000, 17.
10.82000, 18.
10.84000, 13.
10.86000, 17.
10.88000, 15.
10.90000, 12.
10.92000, 16.
10.94000, 12.
10.96000, 15.
10.98000, 14.
11.00000, 13.
11.02000, 13.
11.04000, 17.
11.06000, 15.
11.08000, 13.
11.10000, 16.
11.12000, 17.
11.14000, 12.
11.16000, 14.
11.18000, 11.
11.20000, 12.
11.22000, 10.
11.24000, 10.
11.26000, 13.
11.28000, 8.
11.30000, 13.
11.32000, 10.
11.34000, 13.
11.36000, 13.
11.38000, 15.
11.40000, 11.
11.42000, 11.
11.44000, 13.
11.46000, 10.
11.48000, 9.
11.50000, 7.
11.52000, 18.
11.54000, 8.
11.56000, 10.
11.58000, 11.
11.60000, 18.
11.62000, 12.
11.64000, 9.
11.66000, 11.
11.68000, 15.
11.70000, 11.
11.72000, 10.
11.74000, 8.
11.76000, 13.
11.78000, 10.
11.80000, 6.
11.82000, 11.
11.84000, 14.
11.86000, 11.
11.88000, 12.
11.90000, 8.
11.92000, 13.
11.94000, 13.
11.96000, 10.
11.98000, 11.
12.00000, 11.
12.02000, 11.
12.04000, 9.
12.06000, 15.
12.08000, 9.
12.10000, 10.
12.12000, 9.
12.14000, 12.
12.16000, 9.
12.18000, 10.
12.20000, 12.
12.22000, 8.
12.24000, 12.
12.26000, 9.
12.28000, 9.
12.30000, 9.
12.32000, 11.
12.34000, 9.
12.36000, 13.
12.38000, 9.
12.40000, 15.
12.42000, 9.
12.44000, 9.
12.46000, 6.
12.48000, 11.
12.50000, 12.
12.52000, 9.
12.54000, 11.
12.56000, 8.
12.58000, 9.
12.60000, 12.
12.62000, 13.
12.64000, 11.
12.66000, 13.
12.68000, 9.
12.70000, 9.
12.72000, 7.
12.74000, 11.
12.76000, 8.
12.78000, 9.
12.80000, 13.
12.82000, 8.
12.84000, 11.
12.86000, 9.
12.88000, 8.
12.90000, 9.
12.92000, 7.
12.94000, 9.
12.96000, 11.
12.98000, 10.
13.00000, 8.
13.02000, 13.
13.04000, 12.
13.06000, 13.
13.08000, 8.
13.10000, 9.
13.12000, 9.
13.14000, 9.
13.16000, 12.
13.18000, 8.
13.20000, 13.
13.22000, 10.
13.24000, 11.
13.26000, 12.
13.28000, 6.
13.30000, 8.
13.32000, 6.
13.34000, 13.
13.36000, 7.
13.38000, 9.
13.40000, 11.
13.42000, 6.
13.44000, 9.
13.46000, 9.
13.48000, 6.
13.50000, 7.
13.52000, 4.
13.54000, 11.
13.56000, 14.
13.58000, 11.
13.60000, 8.
13.62000, 8.
13.64000, 7.
13.66000, 6.
13.68000, 9.
13.70000, 8.
13.72000, 6.
13.74000, 7.
13.76000, 10.
13.78000, 6.
13.80000, 9.
13.82000, 8.
13.84000, 10.
13.86000, 6.
13.88000, 9.
13.90000, 8.
13.92000, 6.
13.94000, 5.
13.96000, 9.
13.98000, 6.
14.00000, 9.
14.02000, 9.
14.04000, 8.
14.06000, 9.
14.08000, 7.
14.10000, 5.
14.12000, 6.
14.14000, 7.
14.16000, 9.
14.18000, 7.
14.20000, 5.
14.22000, 6.
14.24000, 6.
14.26000, 7.
14.28000, 6.
14.30000, 6.
14.32000, 4.
14.34000, 9.
14.36000, 7.
14.38000, 8.
14.40000, 9.
14.42000, 7.
14.44000, 8.
14.46000, 9.
14.48000, 6.
14.50000, 5.
14.52000, 7.
14.54000, 7.
14.56000, 8.
14.58000, 4.
14.60000, 5.
14.62000, 5.
14.64000, 4.
14.66000, 7.
14.68000, 7.
14.70000, 7.
14.72000, 9.
14.74000, 3.
14.76000, 9.
14.78000, 8.
14.80000, 5.
14.82000, 7.
14.84000, 6.
14.86000, 11.
14.88000, 4.
14.90000, 3.
14.92000, 8.
14.94000, 5.
14.96000, 7.
14.98000, 5.
15.00000, 6.
15.02000, 5.
15.04000, 8.
15.06000, 5.
15.08000, 4.
15.10000, 5.
15.12000, 4.
15.14000, 4.
15.16000, 5.
15.18000, 5.
15.20000, 6.
15.22000, 3.
15.24000, 9.
15.26000, 7.
15.28000, 6.
15.30000, 4.
15.32000, 6.
15.34000, 8.
15.36000, 8.
15.38000, 4.
15.40000, 5.
15.42000, 4.
15.44000, 6.
15.46000, 1.
15.48000, 6.
15.50000, 5.
15.52000, 5.
15.54000, 5.
15.56000, 6.
15.58000, 4.
15.60000, 8.
15.62000, 5.
15.64000, 3.
15.66000, 5.
15.68000, 2.
15.70000, 6.
15.72000, 5.
15.74000, 4.
15.76000, 3.
15.78000, 4.
15.80000, 4.
15.82000, 9.
15.84000, 7.
15.86000, 3.
15.88000, 6.
15.90000, 4.
15.92000, 5.
15.94000, 5.
15.96000, 3.
15.98000, 4.
16.00000, 3.
16.02000, 5.
16.04000, 2.
16.06000, 8.
16.08000, 5.
16.10000, 5.
16.12000, 1.
16.14000, 4.
16.16000, 6.
16.18000, 2.
16.20000, 4.
16.22000, 2.
16.24000, 1.
16.26000, 2.
16.28000, 4.
16.30000, 3.
16.32000, 3.
16.34000, 1.
16.36000, 2.
16.38000, 4.
16.40000, 4.
16.42000, 5.
16.44000, 7.
16.46000, 1.
16.48000, 7.
16.50000, 4.
16.52000, 1.
16.54000, 7.
16.56000, 2.
16.58000, 0.
16.60000, 1.
16.62000, 2.
16.64000, 3.
16.66000, 4.
16.68000, 6.
16.70000, 8.
16.72000, 4.
16.74000, 4.
16.76000, 3.
16.78000, 5.
16.80000, 2.
16.82000, 3.
16.84000, 2.
16.86000, 1.
16.88000, 5.
16.90000, 2.
16.92000, 4.
16.94000, 1.
16.96000, 4.
16.98000, 1.
17.00000, 3.
17.02000, 2.
17.04000, 3.
17.06000, 3.
17.08000, 1.
17.10000, 4.
17.12000, 1.
17.14000, 2.
17.16000, 4.
17.18000, 5.
17.20000, 2.
17.22000, 1.
17.24000, 5.
17.26000, 6.
17.28000, 2.
17.30000, 3.
17.32000, 2.
17.34000, 0.
17.36000, 1.
17.38000, 3.
17.40000, 3.
17.42000, 1.
17.44000, 2.
17.46000, 3.
17.48000, 3.
17.50000, 2.
17.52000, 2.
17.54000, 2.
17.56000, 3.
17.58000, 2.
17.60000, 1.
17.62000, 2.
17.64000, 3.
17.66000, 3.
17.68000, 0.
17.70000, 2.
17.72000, 1.
17.74000, 2.
17.76000, 5.
17.78000, 2.
17.80000, 1.
17.82000, 2.
17.84000, 0.
17.86000, 3.
17.88000, 1.
17.90000, 0.
17.92000, 1.
17.94000, 6.
17.96000, 1.
17.98000, 2.
18.00000, 1.
18.02000, 3.
18.04000, 3.
18.06000, 1.
18.08000, 3.
18.10000, 3.
18.12000, 1.
18.14000, 1.
18.16000, 3.
18.18000, 2.
18.20000, 1.
18.22000, 3.
18.24000, 2.
18.26000, 2.
18.28000, 6.
18.30000, 1.
18.32000, 1.
18.34000, 1.
18.36000, 1.
18.38000, 3.
18.40000, 1.
18.42000, 3.
18.44000, 0.
18.46000, 2.
18.48000, 1.
18.50000, 1.
18.52000, 1.
18.54000, 0.
18.56000, 0.
18.58000, 2.
18.60000, 0.
18.62000, 0.
18.64000, 0.
18.66000, 2.
18.68000, 1.
18.70000, 0.
18.72000, 2.
18.74000, 2.
18.76000, 0.
18.78000, 3.
18.80000, 0.
18.82000, 1.
18.84000, 3.
18.86000, 0.
18.88000, 1.
18.90000, 1.
18.92000, 0.
18.94000, 2.
18.96000, 1.
18.98000, 1.
19.00000, 1.
19.02000, 0.
19.04000, 0.
19.06000, 0.
19.08000, 1.
19.10000, 0.
19.12000, 0.
19.14000, 2.
19.16000, 1.
19.18000, 0.
19.20000, 1.
19.22000, 0.
19.24000, 1.
19.26000, 1.
19.28000, 1.
19.30000, 1.
19.32000, 0.
19.34000, 1.
19.36000, 0.
19.38000, 0.
19.40000, 1.
19.42000, 0.
19.44000, 1.
19.46000, 1.
19.48000, 0.
19.50000, 0.
19.52000, 0.
19.54000, 0.
19.56000, 0.
19.58000, 1.
19.60000, 0.
19.62000, 0.
19.64000, 1.
19.66000, 0.
19.68000, 0.
19.70000, 0.
19.72000, 0.
19.74000, 0.
19.76000, 0.
19.78000, 0.
19.80000, 0.
19.82000, 0.
19.84000, 0.
19.86000, 0.
19.88000, 0.
19.90000, 0.
19.92000, 0.
19.94000, 0.
19.96000, 0.
19.98000, 0.
20.00000, 0.
20.02000, 0.
20.04000, 0.
20.06000, 0.
20.08000, 0.
20.10000, 0.
20.12000, 0.
20.14000, 0.
20.16000, 0.
20.18000, 0.
20.20000, 0.
20.22000, 0.
20.24000, 0.
20.26000, 0.
20.27000, 0.
#ENDOFDATA   :