File: data/monolayers/nanoparticles/Ol_CoFe_C/edx/data/DD67_2.txt
#FORMAT      : EMSA/MAS Spectral Data File
#VERSION     : 1.0
#TITLE       : Spectrum 1
#DATE        : 04-DEC-2018
#TIME        : 10:34
#OWNER       :
#NPOINTS     : 2048.
#NCOLUMNS    : 1.
#XUNITS      : keV
#YUNITS      : counts
#DATATYPE    : XY
#XPERCHAN    : 0.0100000
#OFFSET      : -0.200000
#SIGNALTYPE  : EDS
#CHOFFSET    : 20.0000
#LIVETIME    : 100
#REALTIME    : 114.975
#BEAMKV      : 20.0000
#PROBECUR    : 0.000000
#MAGCAM      : 1390.00
#XTILTSTGE   : 0.0
#AZIMANGLE   : 0.0
#ELEVANGLE   : 35.0
#XPOSITION mm: 0.0000
#YPOSITION mm: 0.0000
#ZPOSITION mm: 0.0000
##OXINSTPT   : 5
##OXINSTSTROB: 49.33
##OXINSTELEMS: 5,6,8,11,14,26,27
##OXINSTLABEL: 26, 6.404, Fe
##OXINSTLABEL: 26, 7.058, Fe
##OXINSTLABEL: 26, 0.705, Fe
##OXINSTLABEL: 26, 0.628, Fe
##OXINSTLABEL: 8, 0.525, O
##OXINSTLABEL: 27, 6.930, Co
##OXINSTLABEL: 27, 7.650, Co
##OXINSTLABEL: 27, 0.776, Co
##OXINSTLABEL: 27, 0.694, Co
##OXINSTLABEL: 27, 0.678, Co
##OXINSTLABEL: 11, 1.041, Na
##OXINSTLABEL: 6, 0.277, C
##OXINSTLABEL: 14, 1.740, Si
##OXINSTLABEL: 5, 0.183, B
#SPECTRUM    : Spectral Data Starts Here
-0.20000, 0.
-0.18000, 1.
-0.16000, 1.
-0.14000, 1.
-0.12000, 3.
-0.10000, 1.
-0.08000, 6.
-0.06000, 49.
-0.04000, 479.
-0.02000, 2124.
0.00000, 4873.
0.02000, 5514.
0.04000, 3106.
0.06000, 849.
0.08000, 188.
0.10000, 83.
0.12000, 79.
0.14000, 94.
0.16000, 150.
0.18000, 144.
0.20000, 115.
0.22000, 109.
0.24000, 189.
0.26000, 312.
0.28000, 307.
0.30000, 242.
0.32000, 139.
0.34000, 89.
0.36000, 80.
0.38000, 64.
0.40000, 53.
0.42000, 75.
0.44000, 140.
0.46000, 270.
0.48000, 840.
0.50000, 1762.
0.52000, 2465.
0.54000, 1945.
0.56000, 997.
0.58000, 372.
0.60000, 258.
0.62000, 279.
0.64000, 311.
0.66000, 418.
0.68000, 698.
0.70000, 823.
0.72000, 797.
0.74000, 580.
0.76000, 406.
0.78000, 353.
0.80000, 282.
0.82000, 177.
0.84000, 91.
0.86000, 57.
0.88000, 46.
0.90000, 43.
0.92000, 26.
0.94000, 41.
0.96000, 39.
0.98000, 43.
1.00000, 69.
1.02000, 71.
1.04000, 93.
1.06000, 89.
1.08000, 78.
1.10000, 60.
1.12000, 51.
1.14000, 60.
1.16000, 54.
1.18000, 55.
1.20000, 67.
1.22000, 61.
1.24000, 54.
1.26000, 67.
1.28000, 55.
1.30000, 79.
1.32000, 69.
1.34000, 68.
1.36000, 59.
1.38000, 82.
1.40000, 73.
1.42000, 82.
1.44000, 93.
1.46000, 82.
1.48000, 78.
1.50000, 104.
1.52000, 94.
1.54000, 87.
1.56000, 92.
1.58000, 81.
1.60000, 74.
1.62000, 97.
1.64000, 104.
1.66000, 96.
1.68000, 115.
1.70000, 93.
1.72000, 132.
1.74000, 133.
1.76000, 128.
1.78000, 109.
1.80000, 120.
1.82000, 99.
1.84000, 99.
1.86000, 87.
1.88000, 102.
1.90000, 97.
1.92000, 98.
1.94000, 106.
1.96000, 102.
1.98000, 92.
2.00000, 87.
2.02000, 105.
2.04000, 94.
2.06000, 96.
2.08000, 102.
2.10000, 97.
2.12000, 89.
2.14000, 96.
2.16000, 97.
2.18000, 105.
2.20000, 110.
2.22000, 96.
2.24000, 96.
2.26000, 92.
2.28000, 98.
2.30000, 92.
2.32000, 97.
2.34000, 110.
2.36000, 114.
2.38000, 98.
2.40000, 109.
2.42000, 90.
2.44000, 103.
2.46000, 92.
2.48000, 108.
2.50000, 92.
2.52000, 104.
2.54000, 102.
2.56000, 107.
2.58000, 93.
2.60000, 93.
2.62000, 92.
2.64000, 99.
2.66000, 102.
2.68000, 108.
2.70000, 103.
2.72000, 101.
2.74000, 106.
2.76000, 95.
2.78000, 111.
2.80000, 98.
2.82000, 101.
2.84000, 104.
2.86000, 88.
2.88000, 100.
2.90000, 106.
2.92000, 103.
2.94000, 97.
2.96000, 89.
2.98000, 92.
3.00000, 95.
3.02000, 98.
3.04000, 92.
3.06000, 91.
3.08000, 83.
3.10000, 88.
3.12000, 94.
3.14000, 91.
3.16000, 80.
3.18000, 97.
3.20000, 89.
3.22000, 101.
3.24000, 85.
3.26000, 77.
3.28000, 86.
3.30000, 97.
3.32000, 84.
3.34000, 96.
3.36000, 95.
3.38000, 81.
3.40000, 82.
3.42000, 96.
3.44000, 97.
3.46000, 83.
3.48000, 85.
3.50000, 85.
3.52000, 75.
3.54000, 97.
3.56000, 74.
3.58000, 78.
3.60000, 82.
3.62000, 77.
3.64000, 98.
3.66000, 79.
3.68000, 78.
3.70000, 78.
3.72000, 85.
3.74000, 93.
3.76000, 88.
3.78000, 83.
3.80000, 72.
3.82000, 85.
3.84000, 78.
3.86000, 68.
3.88000, 77.
3.90000, 68.
3.92000, 67.
3.94000, 77.
3.96000, 72.
3.98000, 73.
4.00000, 82.
4.02000, 65.
4.04000, 82.
4.06000, 69.
4.08000, 81.
4.10000, 83.
4.12000, 70.
4.14000, 66.
4.16000, 60.
4.18000, 67.
4.20000, 72.
4.22000, 70.
4.24000, 72.
4.26000, 79.
4.28000, 58.
4.30000, 57.
4.32000, 57.
4.34000, 61.
4.36000, 76.
4.38000, 70.
4.40000, 62.
4.42000, 66.
4.44000, 65.
4.46000, 62.
4.48000, 64.
4.50000, 63.
4.52000, 67.
4.54000, 66.
4.56000, 63.
4.58000, 83.
4.60000, 67.
4.62000, 72.
4.64000, 70.
4.66000, 62.
4.68000, 87.
4.70000, 71.
4.72000, 64.
4.74000, 66.
4.76000, 70.
4.78000, 53.
4.80000, 62.
4.82000, 60.
4.84000, 57.
4.86000, 69.
4.88000, 43.
4.90000, 61.
4.92000, 59.
4.94000, 70.
4.96000, 45.
4.98000, 58.
5.00000, 46.
5.02000, 69.
5.04000, 53.
5.06000, 51.
5.08000, 45.
5.10000, 60.
5.12000, 60.
5.14000, 49.
5.16000, 48.
5.18000, 54.
5.20000, 52.
5.22000, 62.
5.24000, 42.
5.26000, 62.
5.28000, 51.
5.30000, 62.
5.32000, 54.
5.34000, 62.
5.36000, 47.
5.38000, 49.
5.40000, 51.
5.42000, 48.
5.44000, 59.
5.46000, 43.
5.48000, 42.
5.50000, 47.
5.52000, 59.
5.54000, 54.
5.56000, 43.
5.58000, 45.
5.60000, 54.
5.62000, 41.
5.64000, 36.
5.66000, 63.
5.68000, 56.
5.70000, 53.
5.72000, 50.
5.74000, 54.
5.76000, 57.
5.78000, 54.
5.80000, 49.
5.82000, 41.
5.84000, 44.
5.86000, 45.
5.88000, 46.
5.90000, 47.
5.92000, 55.
5.94000, 40.
5.96000, 43.
5.98000, 49.
6.00000, 53.
6.02000, 57.
6.04000, 54.
6.06000, 36.
6.08000, 47.
6.10000, 42.
6.12000, 43.
6.14000, 39.
6.16000, 37.
6.18000, 43.
6.20000, 63.
6.22000, 72.
6.24000, 105.
6.26000, 161.
6.28000, 280.
6.30000, 503.
6.32000, 831.
6.34000, 1241.
6.36000, 1676.
6.38000, 2020.
6.40000, 2159.
6.42000, 2000.
6.44000, 1678.
6.46000, 1299.
6.48000, 837.
6.50000, 575.
6.52000, 303.
6.54000, 144.
6.56000, 80.
6.58000, 75.
6.60000, 46.
6.62000, 50.
6.64000, 38.
6.66000, 37.
6.68000, 37.
6.70000, 44.
6.72000, 42.
6.74000, 40.
6.76000, 58.
6.78000, 69.
6.80000, 101.
6.82000, 174.
6.84000, 287.
6.86000, 415.
6.88000, 559.
6.90000, 668.
6.92000, 699.
6.94000, 772.
6.96000, 728.
6.98000, 634.
7.00000, 499.
7.02000, 432.
7.04000, 405.
7.06000, 349.
7.08000, 327.
7.10000, 237.
7.12000, 188.
7.14000, 129.
7.16000, 89.
7.18000, 66.
7.20000, 42.
7.22000, 36.
7.24000, 28.
7.26000, 36.
7.28000, 33.
7.30000, 36.
7.32000, 26.
7.34000, 25.
7.36000, 32.
7.38000, 25.
7.40000, 33.
7.42000, 19.
7.44000, 30.
7.46000, 34.
7.48000, 36.
7.50000, 34.
7.52000, 43.
7.54000, 45.
7.56000, 67.
7.58000, 83.
7.60000, 89.
7.62000, 110.
7.64000, 106.
7.66000, 81.
7.68000, 102.
7.70000, 66.
7.72000, 53.
7.74000, 42.
7.76000, 45.
7.78000, 29.
7.80000, 30.
7.82000, 25.
7.84000, 29.
7.86000, 25.
7.88000, 17.
7.90000, 22.
7.92000, 21.
7.94000, 32.
7.96000, 24.
7.98000, 26.
8.00000, 20.
8.02000, 29.
8.04000, 27.
8.06000, 20.
8.08000, 21.
8.10000, 20.
8.12000, 26.
8.14000, 25.
8.16000, 18.
8.18000, 31.
8.20000, 20.
8.22000, 32.
8.24000, 19.
8.26000, 19.
8.28000, 22.
8.30000, 18.
8.32000, 22.
8.34000, 23.
8.36000, 29.
8.38000, 26.
8.40000, 24.
8.42000, 21.
8.44000, 16.
8.46000, 22.
8.48000, 27.
8.50000, 21.
8.52000, 16.
8.54000, 20.
8.56000, 28.
8.58000, 22.
8.60000, 17.
8.62000, 29.
8.64000, 19.
8.66000, 23.
8.68000, 22.
8.70000, 22.
8.72000, 22.
8.74000, 26.
8.76000, 18.
8.78000, 17.
8.80000, 19.
8.82000, 15.
8.84000, 23.
8.86000, 17.
8.88000, 27.
8.90000, 19.
8.92000, 14.
8.94000, 17.
8.96000, 16.
8.98000, 20.
9.00000, 28.
9.02000, 20.
9.04000, 23.
9.06000, 15.
9.08000, 24.
9.10000, 24.
9.12000, 22.
9.14000, 29.
9.16000, 17.
9.18000, 20.
9.20000, 17.
9.22000, 18.
9.24000, 26.
9.26000, 24.
9.28000, 17.
9.30000, 14.
9.32000, 23.
9.34000, 23.
9.36000, 19.
9.38000, 16.
9.40000, 25.
9.42000, 19.
9.44000, 17.
9.46000, 19.
9.48000, 21.
9.50000, 19.
9.52000, 21.
9.54000, 18.
9.56000, 12.
9.58000, 24.
9.60000, 18.
9.62000, 14.
9.64000, 19.
9.66000, 17.
9.68000, 15.
9.70000, 22.
9.72000, 23.
9.74000, 23.
9.76000, 19.
9.78000, 13.
9.80000, 23.
9.82000, 14.
9.84000, 19.
9.86000, 21.
9.88000, 10.
9.90000, 20.
9.92000, 19.
9.94000, 23.
9.96000, 17.
9.98000, 17.
10.00000, 15.
10.02000, 17.
10.04000, 18.
10.06000, 10.
10.08000, 14.
10.10000, 19.
10.12000, 21.
10.14000, 14.
10.16000, 16.
10.18000, 13.
10.20000, 13.
10.22000, 15.
10.24000, 17.
10.26000, 16.
10.28000, 15.
10.30000, 24.
10.32000, 12.
10.34000, 19.
10.36000, 12.
10.38000, 13.
10.40000, 11.
10.42000, 17.
10.44000, 19.
10.46000, 12.
10.48000, 14.
10.50000, 17.
10.52000, 17.
10.54000, 20.
10.56000, 16.
10.58000, 15.
10.60000, 20.
10.62000, 15.
10.64000, 16.
10.66000, 15.
10.68000, 14.
10.70000, 16.
10.72000, 19.
10.74000, 13.
10.76000, 11.
10.78000, 9.
10.80000, 8.
10.82000, 11.
10.84000, 17.
10.86000, 17.
10.88000, 19.
10.90000, 12.
10.92000, 14.
10.94000, 10.
10.96000, 15.
10.98000, 10.
11.00000, 12.
11.02000, 11.
11.04000, 18.
11.06000, 18.
11.08000, 17.
11.10000, 16.
11.12000, 14.
11.14000, 10.
11.16000, 13.
11.18000, 18.
11.20000, 13.
11.22000, 17.
11.24000, 13.
11.26000, 11.
11.28000, 12.
11.30000, 15.
11.32000, 11.
11.34000, 12.
11.36000, 10.
11.38000, 15.
11.40000, 10.
11.42000, 10.
11.44000, 12.
11.46000, 14.
11.48000, 14.
11.50000, 10.
11.52000, 15.
11.54000, 16.
11.56000, 11.
11.58000, 11.
11.60000, 12.
11.62000, 11.
11.64000, 10.
11.66000, 15.
11.68000, 16.
11.70000, 14.
11.72000, 12.
11.74000, 9.
11.76000, 10.
11.78000, 10.
11.80000, 16.
11.82000, 17.
11.84000, 9.
11.86000, 10.
11.88000, 10.
11.90000, 18.
11.92000, 12.
11.94000, 10.
11.96000, 16.
11.98000, 10.
12.00000, 11.
12.02000, 9.
12.04000, 13.
12.06000, 9.
12.08000, 9.
12.10000, 7.
12.12000, 9.
12.14000, 6.
12.16000, 10.
12.18000, 15.
12.20000, 13.
12.22000, 15.
12.24000, 10.
12.26000, 15.
12.28000, 13.
12.30000, 11.
12.32000, 10.
12.34000, 9.
12.36000, 10.
12.38000, 13.
12.40000, 12.
12.42000, 15.
12.44000, 8.
12.46000, 9.
12.48000, 9.
12.50000, 9.
12.52000, 9.
12.54000, 9.
12.56000, 10.
12.58000, 8.
12.60000, 8.
12.62000, 10.
12.64000, 7.
12.66000, 6.
12.68000, 10.
12.70000, 8.
12.72000, 6.
12.74000, 10.
12.76000, 11.
12.78000, 9.
12.80000, 6.
12.82000, 7.
12.84000, 8.
12.86000, 6.
12.88000, 10.
12.90000, 7.
12.92000, 14.
12.94000, 10.
12.96000, 8.
12.98000, 9.
13.00000, 13.
13.02000, 8.
13.04000, 10.
13.06000, 7.
13.08000, 11.
13.10000, 10.
13.12000, 8.
13.14000, 7.
13.16000, 7.
13.18000, 9.
13.20000, 8.
13.22000, 9.
13.24000, 11.
13.26000, 6.
13.28000, 9.
13.30000, 9.
13.32000, 8.
13.34000, 10.
13.36000, 9.
13.38000, 7.
13.40000, 11.
13.42000, 7.
13.44000, 11.
13.46000, 9.
13.48000, 10.
13.50000, 9.
13.52000, 7.
13.54000, 8.
13.56000, 13.
13.58000, 9.
13.60000, 14.
13.62000, 4.
13.64000, 6.
13.66000, 8.
13.68000, 9.
13.70000, 9.
13.72000, 4.
13.74000, 9.
13.76000, 9.
13.78000, 9.
13.80000, 10.
13.82000, 5.
13.84000, 16.
13.86000, 10.
13.88000, 9.
13.90000, 7.
13.92000, 10.
13.94000, 7.
13.96000, 9.
13.98000, 7.
14.00000, 6.
14.02000, 10.
14.04000, 7.
14.06000, 8.
14.08000, 8.
14.10000, 8.
14.12000, 8.
14.14000, 7.
14.16000, 6.
14.18000, 7.
14.20000, 9.
14.22000, 7.
14.24000, 6.
14.26000, 6.
14.28000, 4.
14.30000, 10.
14.32000, 9.
14.34000, 7.
14.36000, 6.
14.38000, 7.
14.40000, 6.
14.42000, 5.
14.44000, 7.
14.46000, 8.
14.48000, 7.
14.50000, 8.
14.52000, 9.
14.54000, 5.
14.56000, 6.
14.58000, 9.
14.60000, 6.
14.62000, 7.
14.64000, 3.
14.66000, 6.
14.68000, 4.
14.70000, 5.
14.72000, 8.
14.74000, 7.
14.76000, 1.
14.78000, 3.
14.80000, 12.
14.82000, 6.
14.84000, 5.
14.86000, 10.
14.88000, 7.
14.90000, 3.
14.92000, 3.
14.94000, 5.
14.96000, 3.
14.98000, 2.
15.00000, 3.
15.02000, 4.
15.04000, 6.
15.06000, 10.
15.08000, 3.
15.10000, 5.
15.12000, 7.
15.14000, 6.
15.16000, 3.
15.18000, 8.
15.20000, 9.
15.22000, 4.
15.24000, 6.
15.26000, 5.
15.28000, 7.
15.30000, 5.
15.32000, 5.
15.34000, 7.
15.36000, 5.
15.38000, 7.
15.40000, 5.
15.42000, 3.
15.44000, 6.
15.46000, 5.
15.48000, 4.
15.50000, 6.
15.52000, 2.
15.54000, 4.
15.56000, 8.
15.58000, 8.
15.60000, 4.
15.62000, 6.
15.64000, 8.
15.66000, 6.
15.68000, 1.
15.70000, 3.
15.72000, 6.
15.74000, 6.
15.76000, 6.
15.78000, 4.
15.80000, 11.
15.82000, 5.
15.84000, 5.
15.86000, 8.
15.88000, 1.
15.90000, 4.
15.92000, 3.
15.94000, 9.
15.96000, 7.
15.98000, 4.
16.00000, 4.
16.02000, 4.
16.04000, 5.
16.06000, 3.
16.08000, 2.
16.10000, 4.
16.12000, 4.
16.14000, 4.
16.16000, 3.
16.18000, 3.
16.20000, 1.
16.22000, 3.
16.24000, 3.
16.26000, 1.
16.28000, 6.
16.30000, 3.
16.32000, 7.
16.34000, 4.
16.36000, 1.
16.38000, 4.
16.40000, 7.
16.42000, 4.
16.44000, 5.
16.46000, 5.
16.48000, 4.
16.50000, 3.
16.52000, 6.
16.54000, 5.
16.56000, 1.
16.58000, 1.
16.60000, 6.
16.62000, 5.
16.64000, 5.
16.66000, 2.
16.68000, 7.
16.70000, 4.
16.72000, 4.
16.74000, 4.
16.76000, 5.
16.78000, 1.
16.80000, 4.
16.82000, 2.
16.84000, 2.
16.86000, 2.
16.88000, 2.
16.90000, 1.
16.92000, 5.
16.94000, 1.
16.96000, 3.
16.98000, 2.
17.00000, 5.
17.02000, 3.
17.04000, 2.
17.06000, 3.
17.08000, 0.
17.10000, 1.
17.12000, 1.
17.14000, 3.
17.16000, 4.
17.18000, 3.
17.20000, 4.
17.22000, 3.
17.24000, 0.
17.26000, 4.
17.28000, 2.
17.30000, 2.
17.32000, 2.
17.34000, 1.
17.36000, 1.
17.38000, 3.
17.40000, 5.
17.42000, 3.
17.44000, 6.
17.46000, 1.
17.48000, 2.
17.50000, 3.
17.52000, 4.
17.54000, 0.
17.56000, 1.
17.58000, 1.
17.60000, 1.
17.62000, 3.
17.64000, 2.
17.66000, 0.
17.68000, 1.
17.70000, 1.
17.72000, 2.
17.74000, 4.
17.76000, 3.
17.78000, 4.
17.80000, 2.
17.82000, 1.
17.84000, 2.
17.86000, 0.
17.88000, 2.
17.90000, 2.
17.92000, 1.
17.94000, 0.
17.96000, 1.
17.98000, 5.
18.00000, 1.
18.02000, 3.
18.04000, 4.
18.06000, 3.
18.08000, 1.
18.10000, 1.
18.12000, 1.
18.14000, 2.
18.16000, 2.
18.18000, 0.
18.20000, 4.
18.22000, 0.
18.24000, 1.
18.26000, 2.
18.28000, 0.
18.30000, 1.
18.32000, 2.
18.34000, 2.
18.36000, 2.
18.38000, 1.
18.40000, 2.
18.42000, 2.
18.44000, 2.
18.46000, 0.
18.48000, 2.
18.50000, 1.
18.52000, 1.
18.54000, 1.
18.56000, 2.
18.58000, 3.
18.60000, 1.
18.62000, 1.
18.64000, 0.
18.66000, 2.
18.68000, 2.
18.70000, 0.
18.72000, 0.
18.74000, 1.
18.76000, 3.
18.78000, 1.
18.80000, 2.
18.82000, 1.
18.84000, 0.
18.86000, 0.
18.88000, 1.
18.90000, 1.
18.92000, 2.
18.94000, 1.
18.96000, 1.
18.98000, 2.
19.00000, 0.
19.02000, 2.
19.04000, 0.
19.06000, 1.
19.08000, 0.
19.10000, 1.
19.12000, 1.
19.14000, 1.
19.16000, 1.
19.18000, 1.
19.20000, 0.
19.22000, 0.
19.24000, 1.
19.26000, 2.
19.28000, 1.
19.30000, 0.
19.32000, 0.
19.34000, 1.
19.36000, 0.
19.38000, 1.
19.40000, 1.
19.42000, 0.
19.44000, 0.
19.46000, 1.
19.48000, 0.
19.50000, 1.
19.52000, 1.
19.54000, 1.
19.56000, 0.
19.58000, 0.
19.60000, 0.
19.62000, 0.
19.64000, 0.
19.66000, 0.
19.68000, 0.
19.70000, 0.
19.72000, 0.
19.74000, 0.
19.76000, 0.
19.78000, 0.
19.80000, 0.
19.82000, 0.
19.84000, 0.
19.86000, 0.
19.88000, 0.
19.90000, 0.
19.92000, 0.
19.94000, 0.
19.96000, 0.
19.98000, 0.
20.00000, 0.
20.02000, 0.
20.04000, 0.
20.06000, 0.
20.08000, 0.
20.10000, 0.
20.12000, 0.
20.14000, 0.
20.16000, 0.
20.18000, 0.
20.20000, 0.
20.22000, 0.
20.24000, 0.
20.26000, 0.
20.27000, 0.
#ENDOFDATA   :