File: data/monolayers/nanoparticles/Ol_CoFe_C/edx/data/DD67_5.txt
#FORMAT      : EMSA/MAS Spectral Data File
#VERSION     : 1.0
#TITLE       : Spectrum 1
#DATE        : 04-DEC-2018
#TIME        : 10:42
#OWNER       :
#NPOINTS     : 2048.
#NCOLUMNS    : 1.
#XUNITS      : keV
#YUNITS      : counts
#DATATYPE    : XY
#XPERCHAN    : 0.0100000
#OFFSET      : -0.200000
#SIGNALTYPE  : EDS
#CHOFFSET    : 20.0000
#LIVETIME    : 100
#REALTIME    : 116.387
#BEAMKV      : 20.0000
#PROBECUR    : 0.000000
#MAGCAM      : 1390.00
#XTILTSTGE   : 0.0
#AZIMANGLE   : 0.0
#ELEVANGLE   : 35.0
#XPOSITION mm: 0.0000
#YPOSITION mm: 0.0000
#ZPOSITION mm: 0.0000
##OXINSTPT   : 5
##OXINSTSTROB: 49.14
##OXINSTELEMS: 6,8,11,26,27
##OXINSTLABEL: 26, 6.404, Fe
##OXINSTLABEL: 26, 7.058, Fe
##OXINSTLABEL: 26, 0.705, Fe
##OXINSTLABEL: 26, 0.628, Fe
##OXINSTLABEL: 27, 6.930, Co
##OXINSTLABEL: 27, 7.650, Co
##OXINSTLABEL: 27, 0.776, Co
##OXINSTLABEL: 27, 0.694, Co
##OXINSTLABEL: 27, 0.678, Co
##OXINSTLABEL: 8, 0.525, O
##OXINSTLABEL: 6, 0.277, C
##OXINSTLABEL: 11, 1.041, Na
#SPECTRUM    : Spectral Data Starts Here
-0.20000, 0.
-0.18000, 0.
-0.16000, 0.
-0.14000, 0.
-0.12000, 0.
-0.10000, 0.
-0.08000, 3.
-0.06000, 45.
-0.04000, 450.
-0.02000, 2096.
0.00000, 4814.
0.02000, 5460.
0.04000, 2988.
0.06000, 785.
0.08000, 139.
0.10000, 47.
0.12000, 31.
0.14000, 38.
0.16000, 53.
0.18000, 45.
0.20000, 71.
0.22000, 102.
0.24000, 205.
0.26000, 375.
0.28000, 374.
0.30000, 248.
0.32000, 101.
0.34000, 47.
0.36000, 58.
0.38000, 70.
0.40000, 72.
0.42000, 91.
0.44000, 169.
0.46000, 388.
0.48000, 977.
0.50000, 2101.
0.52000, 2820.
0.54000, 2420.
0.56000, 1179.
0.58000, 516.
0.60000, 333.
0.62000, 361.
0.64000, 375.
0.66000, 520.
0.68000, 870.
0.70000, 1123.
0.72000, 1038.
0.74000, 766.
0.76000, 567.
0.78000, 536.
0.80000, 398.
0.82000, 261.
0.84000, 134.
0.86000, 63.
0.88000, 60.
0.90000, 41.
0.92000, 52.
0.94000, 49.
0.96000, 48.
0.98000, 72.
1.00000, 69.
1.02000, 103.
1.04000, 101.
1.06000, 116.
1.08000, 93.
1.10000, 77.
1.12000, 68.
1.14000, 67.
1.16000, 84.
1.18000, 71.
1.20000, 78.
1.22000, 70.
1.24000, 76.
1.26000, 81.
1.28000, 80.
1.30000, 92.
1.32000, 86.
1.34000, 90.
1.36000, 84.
1.38000, 86.
1.40000, 89.
1.42000, 91.
1.44000, 98.
1.46000, 111.
1.48000, 114.
1.50000, 108.
1.52000, 113.
1.54000, 94.
1.56000, 109.
1.58000, 110.
1.60000, 99.
1.62000, 102.
1.64000, 113.
1.66000, 114.
1.68000, 117.
1.70000, 110.
1.72000, 113.
1.74000, 150.
1.76000, 132.
1.78000, 133.
1.80000, 138.
1.82000, 129.
1.84000, 123.
1.86000, 120.
1.88000, 114.
1.90000, 110.
1.92000, 103.
1.94000, 127.
1.96000, 116.
1.98000, 117.
2.00000, 120.
2.02000, 114.
2.04000, 123.
2.06000, 121.
2.08000, 121.
2.10000, 128.
2.12000, 108.
2.14000, 129.
2.16000, 118.
2.18000, 123.
2.20000, 123.
2.22000, 120.
2.24000, 110.
2.26000, 111.
2.28000, 117.
2.30000, 117.
2.32000, 122.
2.34000, 122.
2.36000, 130.
2.38000, 100.
2.40000, 122.
2.42000, 123.
2.44000, 131.
2.46000, 113.
2.48000, 121.
2.50000, 97.
2.52000, 123.
2.54000, 120.
2.56000, 112.
2.58000, 126.
2.60000, 115.
2.62000, 113.
2.64000, 112.
2.66000, 116.
2.68000, 110.
2.70000, 113.
2.72000, 95.
2.74000, 107.
2.76000, 118.
2.78000, 122.
2.80000, 96.
2.82000, 105.
2.84000, 104.
2.86000, 114.
2.88000, 107.
2.90000, 92.
2.92000, 97.
2.94000, 109.
2.96000, 113.
2.98000, 101.
3.00000, 98.
3.02000, 113.
3.04000, 118.
3.06000, 97.
3.08000, 119.
3.10000, 103.
3.12000, 93.
3.14000, 103.
3.16000, 86.
3.18000, 99.
3.20000, 90.
3.22000, 92.
3.24000, 90.
3.26000, 97.
3.28000, 89.
3.30000, 95.
3.32000, 89.
3.34000, 99.
3.36000, 100.
3.38000, 92.
3.40000, 106.
3.42000, 97.
3.44000, 92.
3.46000, 85.
3.48000, 86.
3.50000, 87.
3.52000, 80.
3.54000, 94.
3.56000, 95.
3.58000, 83.
3.60000, 91.
3.62000, 91.
3.64000, 88.
3.66000, 82.
3.68000, 91.
3.70000, 84.
3.72000, 81.
3.74000, 99.
3.76000, 86.
3.78000, 91.
3.80000, 69.
3.82000, 86.
3.84000, 94.
3.86000, 80.
3.88000, 78.
3.90000, 79.
3.92000, 81.
3.94000, 90.
3.96000, 78.
3.98000, 76.
4.00000, 74.
4.02000, 78.
4.04000, 66.
4.06000, 73.
4.08000, 71.
4.10000, 86.
4.12000, 80.
4.14000, 72.
4.16000, 78.
4.18000, 73.
4.20000, 73.
4.22000, 71.
4.24000, 70.
4.26000, 64.
4.28000, 68.
4.30000, 75.
4.32000, 77.
4.34000, 62.
4.36000, 73.
4.38000, 72.
4.40000, 64.
4.42000, 59.
4.44000, 67.
4.46000, 70.
4.48000, 66.
4.50000, 65.
4.52000, 65.
4.54000, 57.
4.56000, 65.
4.58000, 78.
4.60000, 68.
4.62000, 73.
4.64000, 66.
4.66000, 70.
4.68000, 62.
4.70000, 75.
4.72000, 60.
4.74000, 64.
4.76000, 57.
4.78000, 57.
4.80000, 57.
4.82000, 49.
4.84000, 63.
4.86000, 65.
4.88000, 57.
4.90000, 55.
4.92000, 62.
4.94000, 51.
4.96000, 65.
4.98000, 51.
5.00000, 55.
5.02000, 62.
5.04000, 56.
5.06000, 59.
5.08000, 58.
5.10000, 61.
5.12000, 59.
5.14000, 60.
5.16000, 56.
5.18000, 61.
5.20000, 64.
5.22000, 61.
5.24000, 66.
5.26000, 54.
5.28000, 55.
5.30000, 60.
5.32000, 53.
5.34000, 56.
5.36000, 56.
5.38000, 47.
5.40000, 51.
5.42000, 52.
5.44000, 51.
5.46000, 66.
5.48000, 48.
5.50000, 48.
5.52000, 50.
5.54000, 52.
5.56000, 50.
5.58000, 36.
5.60000, 48.
5.62000, 58.
5.64000, 36.
5.66000, 52.
5.68000, 37.
5.70000, 49.
5.72000, 41.
5.74000, 48.
5.76000, 44.
5.78000, 43.
5.80000, 51.
5.82000, 47.
5.84000, 63.
5.86000, 39.
5.88000, 40.
5.90000, 42.
5.92000, 41.
5.94000, 46.
5.96000, 47.
5.98000, 45.
6.00000, 39.
6.02000, 53.
6.04000, 46.
6.06000, 37.
6.08000, 55.
6.10000, 50.
6.12000, 37.
6.14000, 38.
6.16000, 55.
6.18000, 54.
6.20000, 57.
6.22000, 67.
6.24000, 74.
6.26000, 144.
6.28000, 294.
6.30000, 484.
6.32000, 821.
6.34000, 1270.
6.36000, 1705.
6.38000, 1879.
6.40000, 2079.
6.42000, 1987.
6.44000, 1688.
6.46000, 1273.
6.48000, 870.
6.50000, 501.
6.52000, 297.
6.54000, 146.
6.56000, 86.
6.58000, 66.
6.60000, 44.
6.62000, 53.
6.64000, 43.
6.66000, 42.
6.68000, 41.
6.70000, 43.
6.72000, 52.
6.74000, 61.
6.76000, 73.
6.78000, 89.
6.80000, 130.
6.82000, 242.
6.84000, 362.
6.86000, 503.
6.88000, 684.
6.90000, 830.
6.92000, 916.
6.94000, 870.
6.96000, 852.
6.98000, 766.
7.00000, 586.
7.02000, 523.
7.04000, 400.
7.06000, 358.
7.08000, 311.
7.10000, 214.
7.12000, 164.
7.14000, 102.
7.16000, 80.
7.18000, 55.
7.20000, 45.
7.22000, 36.
7.24000, 32.
7.26000, 38.
7.28000, 34.
7.30000, 27.
7.32000, 27.
7.34000, 33.
7.36000, 35.
7.38000, 35.
7.40000, 42.
7.42000, 27.
7.44000, 31.
7.46000, 52.
7.48000, 46.
7.50000, 38.
7.52000, 48.
7.54000, 52.
7.56000, 69.
7.58000, 71.
7.60000, 106.
7.62000, 128.
7.64000, 126.
7.66000, 129.
7.68000, 123.
7.70000, 79.
7.72000, 64.
7.74000, 66.
7.76000, 46.
7.78000, 35.
7.80000, 39.
7.82000, 27.
7.84000, 23.
7.86000, 29.
7.88000, 27.
7.90000, 22.
7.92000, 34.
7.94000, 35.
7.96000, 21.
7.98000, 29.
8.00000, 25.
8.02000, 22.
8.04000, 20.
8.06000, 32.
8.08000, 24.
8.10000, 23.
8.12000, 23.
8.14000, 20.
8.16000, 22.
8.18000, 18.
8.20000, 23.
8.22000, 28.
8.24000, 24.
8.26000, 27.
8.28000, 20.
8.30000, 26.
8.32000, 23.
8.34000, 26.
8.36000, 29.
8.38000, 22.
8.40000, 16.
8.42000, 28.
8.44000, 20.
8.46000, 20.
8.48000, 17.
8.50000, 19.
8.52000, 29.
8.54000, 19.
8.56000, 20.
8.58000, 28.
8.60000, 20.
8.62000, 23.
8.64000, 18.
8.66000, 27.
8.68000, 16.
8.70000, 22.
8.72000, 28.
8.74000, 27.
8.76000, 17.
8.78000, 25.
8.80000, 19.
8.82000, 21.
8.84000, 21.
8.86000, 19.
8.88000, 24.
8.90000, 19.
8.92000, 19.
8.94000, 21.
8.96000, 17.
8.98000, 24.
9.00000, 22.
9.02000, 17.
9.04000, 20.
9.06000, 22.
9.08000, 25.
9.10000, 21.
9.12000, 19.
9.14000, 17.
9.16000, 19.
9.18000, 17.
9.20000, 28.
9.22000, 34.
9.24000, 16.
9.26000, 19.
9.28000, 20.
9.30000, 24.
9.32000, 19.
9.34000, 20.
9.36000, 20.
9.38000, 21.
9.40000, 20.
9.42000, 18.
9.44000, 20.
9.46000, 17.
9.48000, 19.
9.50000, 21.
9.52000, 20.
9.54000, 18.
9.56000, 18.
9.58000, 20.
9.60000, 13.
9.62000, 17.
9.64000, 13.
9.66000, 17.
9.68000, 21.
9.70000, 17.
9.72000, 16.
9.74000, 22.
9.76000, 13.
9.78000, 20.
9.80000, 23.
9.82000, 23.
9.84000, 17.
9.86000, 15.
9.88000, 18.
9.90000, 19.
9.92000, 18.
9.94000, 16.
9.96000, 12.
9.98000, 18.
10.00000, 17.
10.02000, 22.
10.04000, 21.
10.06000, 20.
10.08000, 17.
10.10000, 13.
10.12000, 17.
10.14000, 16.
10.16000, 22.
10.18000, 15.
10.20000, 18.
10.22000, 19.
10.24000, 21.
10.26000, 12.
10.28000, 20.
10.30000, 11.
10.32000, 13.
10.34000, 15.
10.36000, 18.
10.38000, 13.
10.40000, 21.
10.42000, 18.
10.44000, 13.
10.46000, 15.
10.48000, 12.
10.50000, 14.
10.52000, 15.
10.54000, 18.
10.56000, 19.
10.58000, 18.
10.60000, 17.
10.62000, 15.
10.64000, 17.
10.66000, 18.
10.68000, 15.
10.70000, 15.
10.72000, 15.
10.74000, 15.
10.76000, 13.
10.78000, 20.
10.80000, 17.
10.82000, 9.
10.84000, 17.
10.86000, 13.
10.88000, 16.
10.90000, 19.
10.92000, 18.
10.94000, 9.
10.96000, 16.
10.98000, 15.
11.00000, 15.
11.02000, 15.
11.04000, 18.
11.06000, 14.
11.08000, 14.
11.10000, 16.
11.12000, 17.
11.14000, 9.
11.16000, 17.
11.18000, 11.
11.20000, 9.
11.22000, 11.
11.24000, 12.
11.26000, 16.
11.28000, 18.
11.30000, 14.
11.32000, 16.
11.34000, 13.
11.36000, 8.
11.38000, 14.
11.40000, 11.
11.42000, 13.
11.44000, 13.
11.46000, 16.
11.48000, 19.
11.50000, 11.
11.52000, 16.
11.54000, 13.
11.56000, 13.
11.58000, 19.
11.60000, 11.
11.62000, 13.
11.64000, 13.
11.66000, 10.
11.68000, 8.
11.70000, 14.
11.72000, 9.
11.74000, 11.
11.76000, 19.
11.78000, 11.
11.80000, 11.
11.82000, 12.
11.84000, 21.
11.86000, 11.
11.88000, 13.
11.90000, 9.
11.92000, 6.
11.94000, 17.
11.96000, 11.
11.98000, 9.
12.00000, 12.
12.02000, 10.
12.04000, 9.
12.06000, 12.
12.08000, 8.
12.10000, 10.
12.12000, 11.
12.14000, 15.
12.16000, 7.
12.18000, 11.
12.20000, 16.
12.22000, 15.
12.24000, 7.
12.26000, 9.
12.28000, 11.
12.30000, 11.
12.32000, 14.
12.34000, 10.
12.36000, 8.
12.38000, 8.
12.40000, 10.
12.42000, 13.
12.44000, 11.
12.46000, 16.
12.48000, 13.
12.50000, 11.
12.52000, 7.
12.54000, 6.
12.56000, 17.
12.58000, 9.
12.60000, 8.
12.62000, 14.
12.64000, 12.
12.66000, 7.
12.68000, 8.
12.70000, 10.
12.72000, 10.
12.74000, 6.
12.76000, 7.
12.78000, 8.
12.80000, 10.
12.82000, 8.
12.84000, 7.
12.86000, 12.
12.88000, 12.
12.90000, 7.
12.92000, 6.
12.94000, 7.
12.96000, 14.
12.98000, 11.
13.00000, 10.
13.02000, 9.
13.04000, 10.
13.06000, 6.
13.08000, 8.
13.10000, 8.
13.12000, 9.
13.14000, 9.
13.16000, 7.
13.18000, 8.
13.20000, 8.
13.22000, 10.
13.24000, 12.
13.26000, 9.
13.28000, 12.
13.30000, 7.
13.32000, 7.
13.34000, 10.
13.36000, 10.
13.38000, 7.
13.40000, 7.
13.42000, 11.
13.44000, 10.
13.46000, 11.
13.48000, 13.
13.50000, 5.
13.52000, 8.
13.54000, 6.
13.56000, 10.
13.58000, 5.
13.60000, 6.
13.62000, 4.
13.64000, 8.
13.66000, 9.
13.68000, 10.
13.70000, 10.
13.72000, 10.
13.74000, 7.
13.76000, 5.
13.78000, 10.
13.80000, 11.
13.82000, 10.
13.84000, 9.
13.86000, 9.
13.88000, 9.
13.90000, 13.
13.92000, 9.
13.94000, 9.
13.96000, 8.
13.98000, 8.
14.00000, 6.
14.02000, 4.
14.04000, 4.
14.06000, 9.
14.08000, 9.
14.10000, 6.
14.12000, 5.
14.14000, 6.
14.16000, 12.
14.18000, 6.
14.20000, 9.
14.22000, 12.
14.24000, 6.
14.26000, 5.
14.28000, 9.
14.30000, 4.
14.32000, 7.
14.34000, 7.
14.36000, 7.
14.38000, 5.
14.40000, 8.
14.42000, 9.
14.44000, 10.
14.46000, 12.
14.48000, 9.
14.50000, 5.
14.52000, 6.
14.54000, 5.
14.56000, 4.
14.58000, 5.
14.60000, 7.
14.62000, 4.
14.64000, 8.
14.66000, 8.
14.68000, 11.
14.70000, 5.
14.72000, 10.
14.74000, 11.
14.76000, 7.
14.78000, 7.
14.80000, 8.
14.82000, 5.
14.84000, 7.
14.86000, 6.
14.88000, 7.
14.90000, 10.
14.92000, 4.
14.94000, 13.
14.96000, 5.
14.98000, 4.
15.00000, 6.
15.02000, 5.
15.04000, 5.
15.06000, 6.
15.08000, 9.
15.10000, 5.
15.12000, 3.
15.14000, 4.
15.16000, 6.
15.18000, 3.
15.20000, 5.
15.22000, 7.
15.24000, 6.
15.26000, 6.
15.28000, 3.
15.30000, 6.
15.32000, 6.
15.34000, 8.
15.36000, 3.
15.38000, 3.
15.40000, 3.
15.42000, 7.
15.44000, 3.
15.46000, 6.
15.48000, 5.
15.50000, 4.
15.52000, 9.
15.54000, 5.
15.56000, 6.
15.58000, 5.
15.60000, 5.
15.62000, 3.
15.64000, 6.
15.66000, 6.
15.68000, 5.
15.70000, 4.
15.72000, 6.
15.74000, 3.
15.76000, 6.
15.78000, 3.
15.80000, 3.
15.82000, 7.
15.84000, 8.
15.86000, 4.
15.88000, 4.
15.90000, 6.
15.92000, 6.
15.94000, 8.
15.96000, 4.
15.98000, 4.
16.00000, 4.
16.02000, 3.
16.04000, 7.
16.06000, 4.
16.08000, 6.
16.10000, 4.
16.12000, 4.
16.14000, 2.
16.16000, 1.
16.18000, 2.
16.20000, 1.
16.22000, 3.
16.24000, 3.
16.26000, 5.
16.28000, 6.
16.30000, 4.
16.32000, 4.
16.34000, 6.
16.36000, 5.
16.38000, 2.
16.40000, 2.
16.42000, 3.
16.44000, 7.
16.46000, 3.
16.48000, 8.
16.50000, 2.
16.52000, 2.
16.54000, 6.
16.56000, 3.
16.58000, 3.
16.60000, 4.
16.62000, 4.
16.64000, 1.
16.66000, 3.
16.68000, 1.
16.70000, 2.
16.72000, 2.
16.74000, 5.
16.76000, 6.
16.78000, 1.
16.80000, 3.
16.82000, 2.
16.84000, 1.
16.86000, 5.
16.88000, 4.
16.90000, 4.
16.92000, 2.
16.94000, 2.
16.96000, 2.
16.98000, 1.
17.00000, 3.
17.02000, 5.
17.04000, 1.
17.06000, 3.
17.08000, 3.
17.10000, 2.
17.12000, 6.
17.14000, 3.
17.16000, 5.
17.18000, 6.
17.20000, 1.
17.22000, 2.
17.24000, 1.
17.26000, 5.
17.28000, 3.
17.30000, 0.
17.32000, 2.
17.34000, 2.
17.36000, 5.
17.38000, 3.
17.40000, 2.
17.42000, 2.
17.44000, 1.
17.46000, 4.
17.48000, 1.
17.50000, 2.
17.52000, 0.
17.54000, 1.
17.56000, 2.
17.58000, 3.
17.60000, 3.
17.62000, 3.
17.64000, 1.
17.66000, 3.
17.68000, 2.
17.70000, 2.
17.72000, 3.
17.74000, 3.
17.76000, 2.
17.78000, 2.
17.80000, 1.
17.82000, 0.
17.84000, 4.
17.86000, 2.
17.88000, 2.
17.90000, 0.
17.92000, 2.
17.94000, 2.
17.96000, 4.
17.98000, 1.
18.00000, 1.
18.02000, 1.
18.04000, 1.
18.06000, 3.
18.08000, 0.
18.10000, 1.
18.12000, 0.
18.14000, 1.
18.16000, 0.
18.18000, 1.
18.20000, 2.
18.22000, 1.
18.24000, 2.
18.26000, 4.
18.28000, 0.
18.30000, 3.
18.32000, 0.
18.34000, 3.
18.36000, 1.
18.38000, 2.
18.40000, 1.
18.42000, 2.
18.44000, 0.
18.46000, 0.
18.48000, 2.
18.50000, 1.
18.52000, 1.
18.54000, 1.
18.56000, 2.
18.58000, 1.
18.60000, 2.
18.62000, 3.
18.64000, 2.
18.66000, 2.
18.68000, 1.
18.70000, 0.
18.72000, 1.
18.74000, 1.
18.76000, 0.
18.78000, 0.
18.80000, 1.
18.82000, 0.
18.84000, 3.
18.86000, 0.
18.88000, 1.
18.90000, 2.
18.92000, 0.
18.94000, 1.
18.96000, 2.
18.98000, 2.
19.00000, 1.
19.02000, 3.
19.04000, 1.
19.06000, 1.
19.08000, 2.
19.10000, 2.
19.12000, 4.
19.14000, 0.
19.16000, 0.
19.18000, 0.
19.20000, 0.
19.22000, 1.
19.24000, 1.
19.26000, 1.
19.28000, 1.
19.30000, 1.
19.32000, 1.
19.34000, 0.
19.36000, 0.
19.38000, 1.
19.40000, 1.
19.42000, 0.
19.44000, 0.
19.46000, 1.
19.48000, 0.
19.50000, 0.
19.52000, 0.
19.54000, 0.
19.56000, 0.
19.58000, 0.
19.60000, 0.
19.62000, 0.
19.64000, 0.
19.66000, 0.
19.68000, 0.
19.70000, 0.
19.72000, 0.
19.74000, 0.
19.76000, 0.
19.78000, 0.
19.80000, 0.
19.82000, 0.
19.84000, 0.
19.86000, 0.
19.88000, 0.
19.90000, 0.
19.92000, 0.
19.94000, 0.
19.96000, 0.
19.98000, 0.
20.00000, 0.
20.02000, 0.
20.04000, 0.
20.06000, 0.
20.08000, 0.
20.10000, 0.
20.12000, 0.
20.14000, 0.
20.16000, 0.
20.18000, 0.
20.20000, 0.
20.22000, 0.
20.24000, 0.
20.26000, 0.
20.27000, 0.
#ENDOFDATA   :