File: data/looselyPackedNP/nanoparticles/sas/ios-11/experimentalData/saxs_PMK18.xye
#Reducing manually
#Set Sample to: PMK18
#Set Solvent to: Cyclohexane
#Set Pixel size to: 0.172
#Set Wavelength to: 1.3414e-10
#Set Time Sample LSDD to: 5940
#Set Time Sample SSDD to: 5400
#Set Time Solvent LSDD to: 5940
#Set Time Solvent SSDD to: 5400
#Set Time EC LSDD to: 5940
#Set Time EC SSDD to: 5400
#Set Monitor Sample LSDD to: 9783180
#Set Monitor Sample SSDD to: 14715000
#Set Monitor Solvent LSDD to: 9783180
#Set Monitor Solvent SSDD to: 14715000
#Set Monitor EC LSDD to: 9783180
#Set Monitor EC SSDD to: 14715000
#Set Transmission Sample to: 0.2965
#Set Transmission Solvent to: 0.55655
#Set Transmission EC to: 0.61075
#Set Thickness Sample to: 0.1864
#Set Thickness Solvent to: 0.14905
#Set FEP distance to: 3391
#Set FEP CF to: 1.211756
#Set FEP Peak Intensity to: 26.53
#Set Monitor FEP to: 988200
#Set LSDD to: 3531
#Set Beamcenter LSDD y to: 599.6
#Set Beamcenter LSDD z to: 347.5
#Set SSDD to: 836
#Set Beamcenter SSDD y to: 611.9
#Set Beamcenter SSDD z to: 387.5
#Set TIF File Sample LSDD to: PMK18_LSDD_5940s.tif
#Set TIF File Sample SSDD to: PMK18_SSDD_5400s.tif
#Set TIF File Solvent LSDD to: CHEX_LSDD_5940s.tif
#Set TIF File Solvent SSDD to: CHEX_SSDD_5400s.tif
#Set TIF File EC LSDD to: EC_LSDD_5940s.tif
#Set TIF File EC SSDD to: EC_SSDD_5400s.tif

#LSDD Data
#q / A-1	I / cm-1	sI / cm-1	I_sample / cm-1	sI_sample / cm-1	I_solvent / cm-1	sI_solvent / cm-1	I_raw_sample / a.u.	sI_raw_sample / a.u.	I_raw_solvent / a.u.	sI_raw_solvent / a.u.	I_raw_ec / a.u.	sI_raw_ec / a.u.
0.00326174	419.198	0.622063	20405.1	26.1169	398.586	11.0374	5807.96	5.82354	2164.81	3.55537	2184.602	3.57159
0.0039499	433.841	0.406169	20888.8	17.8867	229.355	5.7711	5412.87	4.0619	1138.06	1.86251	1138.954	1.86324
0.00463806	426.905	0.334964	20341.1	15.4692	54.7993	2.96239	4905.557	3.56853	348.743	0.951475	356.427	0.9619
0.00532621	413.903	0.295478	19717.3	13.9264	49.6298	1.37073	4625.512	3.23355	93.2774	0.459186	78.56009	0.421406
0.00601437	403.638	0.27222	19204.4	12.8858	29.3288	0.824538	4482.541	2.99558	39.99879	0.282971	29.8218	0.244335
0.00670252	393.662	0.2539	18719.9	12.0366	20.7005	0.56224	4362.16	2.79928	21.8736	0.198224	14.0665	0.15896
0.00739068	383.98	0.238445	18251.2	11.312	13.5387	0.40229	4249.907	2.63122	12.7356	0.144038	7.470707	0.110319
0.00807883	372.815	0.224541	17713.8	10.6566	7.83277	0.293963	4123.39	2.47897	7.41993	0.105159	4.37189	0.0807196
0.00876699	363.024	0.212592	17245.1	10.0918	4.84042	0.216825	4013.446	2.34772	4.426732	0.0779704	2.52123	0.0588429
0.00945514	351.813	0.201472	16710.8	9.56515	3.26172	0.164577	3888.63	2.22526	2.80424	0.0597572	1.4973	0.0436654
0.0101433	341.804	0.191714	16235.2	9.10225	3.09114	0.142812	3777.8	2.11759	2.36049	0.0529327	1.09208	0.0360039
0.0108315	330.746	0.18249	15709.4	8.66452	2.48133	0.127246	3655.39	2.01577	1.97211	0.0468208	0.9581224	0.032635
0.0115196	320.451	0.174175	15220.1	8.26984	2.13341	0.116397	3541.51	1.92395	1.739302	0.042637	0.8693777	0.0301442
0.0122078	309.769	0.166348	14712.7	7.89823	2.06787	0.109963	3423.443	1.8375	1.65527	0.0404045	0.808577	0.0282394
0.0128959	300.558	0.162686	14275.2	7.72434	2.00938	0.108427	3321.66	1.79704	1.62625	0.0397625	0.804759	0.0279713
0.0135841	291.013	0.159259	13821.7	7.56174	1.77184	0.10196	3216.1	1.75921	1.44808	0.0373293	0.723074	0.0263782
0.0142722	281.74	0.156908	13380.8	7.45012	1.38583	0.0993144	3113.55	1.73324	1.30979	0.0355494	0.7563058	0.0270134
0.0149604	272.501	0.153347	12942	7.28104	1.3222	0.0979239	3011.46	1.69391	1.280653	0.0349314	0.754824	0.0268178
0.0156485	263.443	0.148553	12512	7.05334	1.38107	0.0967575	2911.4	1.64093	1.29855	0.0346553	0.746252	0.0262713
0.0163367	255.461	0.144884	12132.8	6.87913	1.30446	0.0957837	2823.2	1.6004	1.28149	0.034097	0.764249	0.0263315
0.0170249	247.27	0.141251	11743.9	6.70662	1.29966	0.0939773	2732.7	1.56027	1.26053	0.0335103	0.743539	0.0257368
0.017713	239.992	0.136534	11398	6.48265	1.11739	0.0914662	2652.25	1.50816	1.20651	0.0321665	0.7716085	0.0257239
0.0184012	231.641	0.13066	11001.5	6.20372	1.18427	0.0887872	2559.988	1.44326	1.21337	0.0314212	0.747085	0.0246554
0.0190893	224.649	0.125966	10669.5	5.98081	1.2338	0.086931	2482.749	1.3914	1.22365	0.0308898	0.734633	0.0239344
0.0197775	217.396	0.120812	10325.1	5.73608	1.23919	0.0849251	2402.62	1.33447	1.22832	0.0301731	0.7371708	0.0233749
0.0204656	210.985	0.116176	10020.5	5.51594	1.0747	0.0821334	2331.758	1.28325	1.17586	0.0288169	0.7584332	0.0231434
0.0211538	204.317	0.111797	9703.95	5.30802	1.15875	0.0795601	2258.093	1.23488	1.175109	0.0281704	0.71733	0.0220096
0.0218419	198.558	0.10794	9430.4	5.12484	1.10951	0.0784973	2194.464	1.19226	1.17839	0.0276282	0.744533	0.0219608
0.0225301	192.439	0.104195	9139.88	4.94703	1.17104	0.0772441	2126.87	1.15089	1.19765	0.0273105	0.7361772	0.0214119
0.0232182	186.58	0.100701	8861.58	4.78108	1.09758	0.0760403	2062.13	1.11228	1.18767	0.0266935	0.760433	0.0213593
0.0239064	181.581	0.0979061	8624.04	4.64839	0.986649	0.0738965	2006.87	1.08141	1.137665	0.0257477	0.758717	0.0210267
0.0245946	176.024	0.0980427	8359.98	4.65489	0.828717	0.0735578	1945.43	1.08292	1.0657	0.0253458	0.7554309	0.0213396
0.0252827	171.135	0.0971714	8128.02	4.61348	0.984846	0.0746146	1891.46	1.07329	1.11482	0.0260568	0.734511	0.0211503
0.0259709	165.969	0.0930797	7882.64	4.41917	0.947016	0.0728711	1834.38	1.02808	1.11384	0.0253334	0.7515621	0.0208097
0.026659	161.459	0.0890773	7668.52	4.22912	1.01226	0.071013	1784.56	0.983867	1.13484	0.0248107	0.7433429	0.0200801
0.0273472	156.523	0.0859227	7434.11	4.07935	0.996777	0.0685067	1730.01	0.949024	1.10303	0.0239633	0.7158519	0.0193048
0.0280353	152.068	0.0829577	7222.61	3.93855	1.01767	0.0671866	1680.8	0.916267	1.10913	0.0235372	0.712537	0.0188655
0.0287235	147.748	0.07879	7017.35	3.74066	0.936993	0.0645801	1633.05	0.870228	1.08705	0.0224522	0.726973	0.0183608
0.0294116	143.469	0.0755813	6814.11	3.58832	0.915855	0.0623637	1585.76	0.834785	1.06764	0.0216605	0.7157991	0.0177358
0.0300998	139.334	0.0735615	6617.74	3.4924	0.898063	0.061383	1540.08	0.81247	1.05766	0.0212916	0.713373	0.0174862
0.030788	135.561	0.0722331	6438.37	3.42931	0.760547	0.0613204	1498.365	0.797787	1.03504	0.020968	0.7544538	0.0179017
0.0314761	131.762	0.0724843	6258.17	3.44122	0.887535	0.0621568	1456.42	0.800559	1.05472	0.0215436	0.715194	0.0177404
0.0321643	127.843	0.0717407	6072.03	3.40589	0.86083	0.0623291	1413.12	0.792339	1.04579	0.0215548	0.718187	0.0178625
0.0328524	124.268	0.0707748	5902.37	3.36003	0.961908	0.0616822	1373.62	0.781672	1.04777	0.0215886	0.671928	0.0172883
0.0335406	120.457	0.0695872	5721.43	3.30361	0.999064	0.0620085	1331.53	0.768544	1.066904	0.0217549	0.6751152	0.0173055
0.0342287	117.077	0.0684398	5560.73	3.2491	0.823485	0.0623131	1294.17	0.755858	1.04303	0.0214582	0.7330568	0.0179893
0.0349169	113.583	0.0662156	5394.99	3.14347	0.975713	0.0612787	1255.59	0.731287	1.0763	0.0214107	0.696621	0.0172251
0.035605	110.15	0.0632476	5231.64	3.00256	0.726141	0.0589902	1217.61	0.6985	1.01028	0.0201203	0.7437715	0.0172636
0.0362932	106.842	0.0611421	5074.65	2.90259	0.813502	0.0574444	1181.07	0.675244	1.01428	0.019788	0.7062902	0.0165126
0.0369814	103.413	0.0592318	4911.83	2.81187	0.828497	0.056714	1143.19	0.654138	1.021465	0.0195534	0.706993	0.0162674
0.0376695	100.247	0.0575229	4761.66	2.73072	0.932244	0.0559925	1108.24	0.635259	1.04427	0.0195003	0.6822996	0.0157624
0.0383577	97.0335	0.0558827	4608.96	2.65283	0.874212	0.0549802	1072.71	0.617138	1.02221	0.0190507	0.685901	0.0156053
0.0390458	94.0392	0.0543521	4466.83	2.58014	0.915849	0.0544321	1039.64	0.600227	1.03406	0.0189298	0.67895	0.0153388
0.039734	90.886	0.0527102	4316.94	2.50217	0.796618	0.0538388	1004.79	0.582083	1.01335	0.0184854	0.7133667	0.0155097
0.0404221	87.8425	0.0511637	4172.4	2.42875	0.792701	0.0522725	971.1447	0.565004	0.98379	0.0179829	0.6828034	0.0149816
0.0411103	84.6991	0.0497256	4023.24	2.36045	0.878188	0.0520002	936.4352	0.549112	1.00973	0.0180312	0.670304	0.0146912
0.0417984	81.7691	0.0483834	3884.11	2.2967	0.887198	0.0515477	904.0664	0.53428	1.01301	0.0178845	0.6695842	0.0145402
0.0424866	78.7138	0.0470434	3739.04	2.23306	0.897515	0.0510136	870.312	0.519474	1.01257	0.017719	0.664155	0.0143503
0.0431748	75.7796	0.0458416	3599.65	2.17596	0.857262	0.051099	837.8951	0.506188	1.01845	0.0176477	0.6899035	0.0145248
0.0438629	72.8487	0.0445555	3460.45	2.11491	0.839758	0.0497515	805.495	0.491986	0.9843694	0.0171989	0.660888	0.0140924
0.0445511	70.0298	0.0432975	3326.64	2.05512	0.878267	0.0504883	774.3795	0.478071	1.03192	0.0174517	0.6946099	0.0143181
0.0452392	67.2082	0.0420415	3192.6	1.99548	0.845653	0.049521	743.19	0.464198	1.00694	0.0170865	0.6828274	0.0140705
0.0459274	64.4054	0.0408033	3059.51	1.9367	0.847606	0.0484	712.2119	0.450522	0.983223	0.0167393	0.65587	0.0136716
0.0466155	61.6778	0.0395951	2930	1.87927	0.864683	0.0488982	682.0965	0.437159	1.01776	0.0168865	0.6855865	0.0138595
0.0473037	58.9672	0.0383998	2801.27	1.8225	0.858811	0.0484774	652.148	0.423949	1.01549	0.0167293	0.685908	0.0137491
0.0479918	56.401	0.0372526	2679.36	1.76804	0.813502	0.0473393	623.7747	0.411279	0.979476	0.0162974	0.6681011	0.01346
0.04868	53.7311	0.0360697	2552.48	1.71183	0.745125	0.0473315	594.2722	0.398199	0.978059	0.0161544	0.699314	0.0136598
0.0493681	51.235	0.0349472	2433.9	1.65857	0.705714	0.0457071	566.6651	0.385808	0.925311	0.0155902	0.660317	0.01317
0.0500563	48.6927	0.0338118	2313.34	1.60461	0.841105	0.0459302	538.6105	0.373254	0.97334	0.0158672	0.648139	0.012948
0.0507445	46.2996	0.0327255	2199.64	1.55298	0.791265	0.0460809	512.1724	0.361239	0.9804321	0.015805	0.679807	0.0131607
0.0514326	43.8732	0.0316222	2084.51	1.50058	0.868968	0.0454124	485.3725	0.34905	0.9844398	0.0157197	0.646967	0.0127436
0.0521208	41.4653	0.0305202	1970.17	1.44824	0.874611	0.0448344	458.765	0.336872	0.976319	0.0155405	0.635351	0.0125365
0.0528089	39.2478	0.0294813	1864.79	1.39888	0.807673	0.0445284	434.2547	0.325386	0.9626622	0.0153202	0.6524431	0.0126124
0.0534971	37.098	0.0284651	1762.76	1.3506	0.858562	0.044382	410.516	0.31415	0.9790047	0.0153414	0.6459892	0.0124619
0.0541852	34.9366	0.0274338	1660.14	1.30158	0.874162	0.0442641	386.643	0.302745	0.989069	0.0153121	0.6495576	0.0124089
0.0548734	32.7857	0.0263955	1557.84	1.25229	0.7455	0.0432631	362.844	0.291274	0.9359441	0.0147934	0.6529185	0.0123558
0.0555615	30.8527	0.0254362	1466.1	1.20671	0.790552	0.0428274	341.492	0.28067	0.9396265	0.0147226	0.6353691	0.0121065
0.0562497	28.8614	0.0244404	1371.56	1.1594	0.802532	0.042443	319.492	0.269661	0.9381317	0.0146124	0.627988	0.0119554
0.0569379	27.0678	0.0235183	1286.38	1.11557	0.797435	0.0422705	299.677	0.259462	0.9406409	0.0145365	0.633184	0.0119265
0.057626	25.2543	0.0225732	1200.22	1.07065	0.769885	0.0420029	279.636	0.249009	0.9348182	0.0143973	0.639997	0.0119126
0.0583142	23.4881	0.021635	1116.4	1.02605	0.812229	0.0419635	260.134	0.238629	0.95206	0.0144363	0.6386252	0.0118235
0.0590023	21.8883	0.0207589	1040.41	0.98441	0.788241	0.0416107	242.454	0.228938	0.943232	0.0142795	0.6404327	0.0117663
0.0596905	20.3219	0.0198798	965.909	0.942651	0.698992	0.0409144	225.124	0.21922	0.9075719	0.013919	0.644072	0.0117256
0.0603786	18.8245	0.019022	894.86	0.901855	0.744703	0.0409313	208.594	0.209725	0.9270763	0.0139816	0.6435693	0.0116492
0.0610668	17.3778	0.0181698	826.157	0.861374	0.743402	0.0401905	192.6	0.200306	0.9073502	0.0137485	0.6225453	0.0113881
0.0617549	16.0333	0.0173878	762.483	0.824156	0.881791	0.04039	177.776	0.191646	0.9501451	0.0140106	0.603187	0.0111632
0.0624431	14.7862	0.0169303	703.243	0.802343	0.866911	0.0409633	163.997	0.186566	0.9487904	0.0141906	0.6088317	0.0113674
0.0631313	13.5744	0.0163337	645.651	0.773954	0.830684	0.0409569	150.5967	0.179956	0.9311	0.01415	0.606779	0.0114228
0.0638194	12.4406	0.0156925	591.792	0.743416	0.814107	0.0411729	138.07	0.172845	0.9311778	0.0141946	0.614809	0.011534
0.0645076	11.343	0.0150133	539.673	0.711116	0.815786	0.0408043	125.936	0.165328	0.915332	0.0140949	0.596615	0.0113794
0.0651957	10.3484	0.0143593	492.432	0.679939	0.811212	0.0411585	114.952	0.158067	0.9266518	0.0141919	0.6112296	0.0115262
0.0658839	9.41323	0.0135917	447.92	0.643447	0.727279	0.0404743	104.599	0.149571	0.895313	0.0138379	0.617063	0.0114881
0.066572	8.51764	0.012677	405.487	0.599942	0.804579	0.0397701	94.71916	0.139447	0.9147337	0.0137037	0.6013299	0.0111108
0.0672602	7.69098	0.0119007	366.09	0.562973	0.691279	0.039456	85.5708	0.130834	0.898174	0.0134041	0.6374548	0.0112923
0.0679483	6.91941	0.0111967	329.537	0.529487	0.76122	0.0387825	77.05106	0.123042	0.899485	0.0132942	0.6053754	0.0109063
0.0686365	6.22406	0.0105432	296.482	0.49838	0.73337	0.0382543	69.35928	0.115798	0.884654	0.0130779	0.6024463	0.0107922
0.0693247	5.54974	0.00989489	264.521	0.467505	0.782168	0.0377566	61.9126	0.108611	0.885637	0.0129901	0.5801402	0.0105136
0.0700128	4.93236	0.0092808	235.216	0.438192	0.792163	0.0376976	55.09727	0.101782	0.8949081	0.0129716	0.5855236	0.0104925
0.070701	4.39915	0.00873637	209.857	0.412186	0.761845	0.0376592	49.2042	0.0957193	0.8940923	0.012903	0.599158	0.0105626
0.0713891	3.89422	0.00818362	185.866	0.385847	0.750794	0.03705	43.6153	0.0895846	0.8758276	0.0126947	0.584411	0.0103699
0.0720773	3.41636	0.00763987	163.2	0.359746	0.772621	0.0375528	38.35513	0.0834936	0.909785	0.0128591	0.6112145	0.0105399
0.0727654	3.00066	0.00713155	143.436	0.335532	0.753555	0.0367136	33.7455	0.077854	0.880014	0.0125724	0.587681	0.0102741
0.0734536	2.6164	0.00664307	125.216	0.312103	0.775979	0.0367124	29.5083	0.0723885	0.892841	0.0125917	0.5910112	0.0102446
0.0741417	2.27359	0.00618208	109.011	0.289973	0.83497	0.0366375	25.7334	0.0672277	0.9100397	0.0126424	0.5816142	0.0101069
0.0748299	1.95857	0.00572678	93.9667	0.268177	0.767017	0.0360955	22.23392	0.0621393	0.8814797	0.0123727	0.582839	0.0100608
0.075518	1.69353	0.00532005	81.3051	0.248642	0.706767	0.0357791	19.2926	0.0575733	0.863444	0.0121799	0.59192	0.0100846
0.0762062	1.4437	0.00492057	69.5757	0.229297	0.814281	0.0359592	16.55868	0.0530558	0.900981	0.0123759	0.581588	0.00994324
0.0768944	1.23885	0.00456301	59.8058	0.212073	0.780326	0.0355614	14.2848	0.0490278	0.884464	0.0121996	0.5797348	0.0098769
0.0775825	1.05351	0.00421747	50.9385	0.195381	0.727611	0.035195	12.2239	0.0451183	0.865422	0.012005	0.5841015	0.00986263
0.0782707	0.886713	0.00389107	43.0129	0.179443	0.723801	0.0352462	10.3854	0.0413776	0.87399	0.0120035	0.5953299	0.00990677
0.0789588	0.752264	0.00360488	36.7066	0.165553	0.786414	0.0348282	8.904744	0.0381316	0.876012	0.01196	0.5675419	0.00962661
0.079647	0.639658	0.0034043	31.3662	0.155514	0.791999	0.0353087	7.66428	0.0357619	0.882199	0.012133	0.571656	0.00976681
0.0803351	0.545448	0.00321343	26.8545	0.145929	0.761651	0.0356774	6.62083	0.0334914	0.8806177	0.0122144	0.584464	0.00995074
0.0810233	0.479328	0.00306202	23.7178	0.13835	0.764258	0.0357842	5.89049	0.0317006	0.880655	0.0122573	0.5832561	0.0099752
0.0817114	0.421871	0.00292172	21.0876	0.131291	0.842818	0.0358748	5.269503	0.0300428	0.897961	0.0124018	0.5645985	0.00983389
0.0823996	0.383192	0.00281642	19.1641	0.126037	0.773444	0.0357812	4.82742	0.0287902	0.8778679	0.0122773	0.5757947	0.00994307
0.0830878	0.360582	0.00274777	18.1055	0.122709	0.785531	0.0354791	4.57324	0.0280133	0.8683102	0.0122065	0.559514	0.00979845
0.0837759	0.345034	0.00270222	17.3272	0.120367	0.753596	0.0355655	4.39863	0.0274486	0.8664885	0.0121827	0.572819	0.00990537
0.0844641	0.350165	0.00270627	17.5948	0.120857	0.772706	0.0349415	4.445	0.027589	0.84503	0.0120292	0.5401128	0.00961707
0.0851522	0.362326	0.00275401	18.2264	0.122932	0.815947	0.035683	4.603238	0.0280645	0.8851194	0.0123063	0.5633835	0.0098181
0.0858404	0.386159	0.00281463	19.2171	0.126022	0.703158	0.0356105	4.84628	0.0287792	0.859433	0.0121194	0.5892486	0.0100352
0.0865285	0.420746	0.00290693	20.9279	0.130684	0.75787	0.0355567	5.23705	0.0298942	0.8696624	0.012182	0.574254	0.0098991
0.0872167	0.453587	0.00301635	22.4298	0.136217	0.711776	0.035421	5.58097	0.0312017	0.839218	0.0120993	0.5629343	0.0099095
0.0879048	0.503592	0.00319104	24.8144	0.144786	0.719747	0.0357569	6.130565	0.0332204	0.83296	0.0122452	0.552247	0.00997059
0.088593	0.542379	0.00330637	26.6512	0.150452	0.715662	0.0359082	6.557504	0.034553	0.830432	0.0122961	0.551431	0.0100199
0.0892812	0.60241	0.00347169	29.5521	0.158608	0.755838	0.0359642	7.224524	0.0364797	0.8331682	0.0123883	0.535179	0.00992879
0.0899693	0.662875	0.00363629	32.4713	0.16664	0.794077	0.0361953	7.899639	0.03837	0.842278	0.012529	0.526851	0.00990907
0.0906575	0.720095	0.00378483	35.1243	0.173877	0.742704	0.036383	8.523337	0.0400603	0.83199	0.0125161	0.540181	0.0100851
0.0913456	0.782953	0.00393717	38.0609	0.181383	0.704043	0.0362636	9.205614	0.0418213	0.813359	0.0124312	0.538263	0.0101127
0.0920338	0.843579	0.00408729	40.9479	0.188603	0.710421	0.0366572	9.881575	0.0435089	0.82421	0.0125656	0.5471142	0.0102377
0.0927219	0.8973	0.0042224	43.2581	0.194753	0.51786	0.0381484	10.4716	0.0448954	0.8387787	0.0127063	0.6553835	0.0112316
0.0934101	0.972385	0.00437939	47.0403	0.202457	0.691078	0.0380232	11.3273	0.0467275	0.8688628	0.0129415	0.6053853	0.0108025
0.0940982	1.02751	0.00448733	49.7066	0.207963	0.729821	0.0371595	11.9235	0.0480409	0.840483	0.0127548	0.555675	0.010371
0.0947864	1.0895	0.00461823	52.68	0.214366	0.753569	0.0370182	12.6073	0.049547	0.8360083	0.0127588	0.5393836	0.0102484
0.0954746	1.14555	0.00473713	55.3757	0.220137	0.780685	0.0370256	13.2293	0.0509018	0.838046	0.0128115	0.5286247	0.0101751
0.0961627	1.20582	0.00485684	58.1012	0.225977	0.671771	0.0368924	13.8721	0.0522594	0.806918	0.012604	0.54666	0.0103741
0.0968509	1.25071	0.00494865	60.2677	0.230465	0.69928	0.0367327	14.3679	0.053316	0.803481	0.012608	0.5297054	0.0102371
0.097539	1.31371	0.00507596	63.3101	0.236557	0.739991	0.0370157	15.0748	0.0547409	0.8193665	0.0127622	0.527628	0.0102412
0.0982272	1.35991	0.00517337	65.4939	0.241132	0.731834	0.037584	15.5935	0.0558006	0.83589	0.0129194	0.5496697	0.0104765
0.0989153	1.40263	0.00525577	67.4672	0.24515	0.68744	0.0374476	16.0538	0.0567383	0.8186942	0.0128129	0.552075	0.0105217
0.0996035	1.43386	0.0053232	69.0302	0.248344	0.751536	0.0377243	16.4137	0.0574875	0.839635	0.0130022	0.544338	0.010469
0.100292	1.47746	0.0054027	71.0671	0.252285	0.724753	0.0372981	16.881	0.0584136	0.8156521	0.0128401	0.5308545	0.0103586
0.10098	1.50072	0.00545088	72.1193	0.254605	0.682937	0.0373223	17.13008	0.0589517	0.8054096	0.0127828	0.5396542	0.0104634
0.101668	1.54197	0.00552848	74.0285	0.258353	0.643048	0.0373139	17.5777	0.0598241	0.7944521	0.0127183	0.546746	0.0105509
0.102356	1.57121	0.00558828	75.4688	0.2612	0.684682	0.0374864	17.90989	0.0604911	0.807169	0.0128418	0.5407485	0.010511
0.103044	1.58853	0.00562639	76.3941	0.263045	0.766669	0.0374519	18.1134	0.0609314	0.820876	0.0129712	0.5164995	0.0102891
0.103732	1.59237	0.00564549	76.5766	0.263854	0.766974	0.0379543	18.1645	0.0611128	0.8372848	0.0131207	0.53436	0.0104818
0.104421	1.61473	0.00568893	77.6212	0.265983	0.752947	0.0378048	18.40525	0.0616115	0.8268182	0.0130586	0.529597	0.0104511
0.105109	1.61954	0.00570225	77.7775	0.266663	0.695375	0.0376394	18.44437	0.0617673	0.8068731	0.012919	0.5352993	0.0105227
0.105797	1.62118	0.00571207	77.8073	0.267128	0.656951	0.0376764	18.4557	0.0618718	0.798403	0.0128688	0.5444189	0.0106266
0.106485	1.61585	0.00571182	77.7348	0.267144	0.801524	0.0375486	18.4179	0.0618922	0.822121	0.0130763	0.501162	0.0102095
0.107173	1.61325	0.00570863	77.6147	0.266994	0.804243	0.0375328	18.3891	0.0618576	0.8218316	0.0130769	0.499541	0.0101953
0.107861	1.59823	0.00567725	76.8821	0.265542	0.788586	0.0372531	18.2157	0.0615212	0.8094542	0.0129687	0.4934622	0.0101258
0.10855	1.5958	0.00567254	76.8183	0.265248	0.82983	0.0375578	18.20224	0.0614516	0.8299768	0.0131221	0.496218	0.0101463
0.109238	1.5838	0.00564478	76.055	0.264033	0.675081	0.036995	18.0328	0.0611613	0.7776496	0.012701	0.5129556	0.0103154
0.109926	1.55419	0.00560907	74.8221	0.262147	0.813781	0.0377328	17.7426	0.0607229	0.8318462	0.0131482	0.50596	0.0102542
0.110614	1.54375	0.00571697	74.3064	0.267281	0.797847	0.0380527	17.6146	0.0619197	0.8100228	0.0132782	0.489648	0.0103237
0.111302	1.51134	0.00578735	72.7123	0.270454	0.753804	0.0390426	17.2524	0.0626445	0.8068952	0.0135478	0.5073227	0.0107424
0.11199	1.48087	0.00581635	71.1994	0.271788	0.700876	0.0393343	16.9018	0.0629482	0.786489	0.0135789	0.510295	0.0109377
0.112678	1.45793	0.0058455	70.1065	0.273154	0.69816	0.0395128	16.6425	0.0632665	0.7757886	0.0136595	0.499853	0.0109644
0.113367	1.42756	0.0058424	68.7466	0.27296	0.764062	0.0397087	16.3153	0.063227	0.7843434	0.013863	0.477658	0.0108184
0.114055	1.39475	0.00581313	67.1647	0.271408	0.744793	0.0403134	15.9566	0.062853	0.793462	0.0140158	0.4969	0.0110915
0.114743	1.34752	0.00559548	64.7908	0.261171	0.640095	0.0391248	15.4106	0.0604641	0.7594654	0.0134228	0.5097672	0.010997
0.115431	1.29392	0.0054508	62.2976	0.254066	0.681884	0.0395885	14.8398	0.058798	0.79513	0.0136103	0.528878	0.0111001
0.116119	1.26968	0.00537224	61.3134	0.250512	0.815111	0.0385712	14.5796	0.0579993	0.794756	0.0135415	0.464621	0.0103538
0.116807	1.21677	0.00525328	58.7606	0.244876	0.783254	0.0380849	13.9823	0.0566859	0.7743996	0.0133404	0.4575488	0.0102543
0.117496	1.17768	0.00517236	56.8666	0.240925	0.752941	0.0382262	13.5483	0.0557555	0.773722	0.0133241	0.471333	0.0103994
0.118184	1.12115	0.00504812	54.2479	0.234828	0.805509	0.0385356	12.9401	0.0543296	0.7986556	0.0134973	0.4735018	0.0103927
0.118872	1.0929	0.00497519	52.7503	0.231233	0.680714	0.0387616	12.6131	0.0534679	0.7843563	0.0133333	0.517616	0.0108314
0.11956	1.04099	0.00484489	50.304	0.225153	0.695555	0.0378361	12.0274	0.0520635	0.759678	0.0130847	0.483422	0.0104378
0.120248	1.0004	0.0047504	48.4577	0.22052	0.760635	0.0380088	11.5948	0.0509834	0.7822833	0.0132428	0.47704	0.0103413
0.120936	0.954715	0.00464819	46.2637	0.215375	0.741047	0.0386439	11.0999	0.0497631	0.802968	0.0133844	0.509127	0.0106576
0.121624	0.90228	0.00452024	43.8261	0.209258	0.782953	0.0382469	10.5219	0.0483431	0.8008218	0.0133369	0.4866885	0.0103971
0.122313	0.868201	0.00443121	42.2397	0.205024	0.808452	0.0378832	10.1445	0.0473616	0.79648	0.0132708	0.469704	0.0101911
0.123001	0.823085	0.00431443	39.9421	0.199396	0.684367	0.0376559	9.62235	0.0460292	0.765491	0.0129826	0.495163	0.0104416
0.123689	0.772093	0.00418237	37.5607	0.193098	0.7165	0.0371545	9.056625	0.0445674	0.7575552	0.0128896	0.471055	0.0101641
0.124377	0.72894	0.00406757	35.458	0.187565	0.673686	0.0369001	8.56928	0.0432682	0.742359	0.0127351	0.474897	0.0101858
0.125065	0.678308	0.00394245	33.0904	0.1813	0.703141	0.0373394	8.024009	0.0417918	0.7656417	0.0129095	0.486331	0.0102887
0.125753	0.638025	0.00383352	31.1048	0.175937	0.645023	0.0373878	7.5712	0.0405214	0.7574453	0.0128167	0.505188	0.0104671
0.126442	0.593099	0.00371369	29.0735	0.170029	0.726696	0.037426	7.09055	0.0391444	0.7779621	0.0129661	0.488563	0.0102752
0.12713	0.559627	0.00362192	27.5948	0.165493	0.81524	0.0374581	6.737468	0.0380913	0.7996611	0.0131229	0.469942	0.01006
0.127818	0.522206	0.00350559	25.757	0.159943	0.766617	0.0369131	6.306918	0.0367908	0.7728384	0.0128788	0.4638088	0.009977
0.128506	0.486253	0.00339845	24.0306	0.154663	0.751389	0.036853	5.907101	0.0355462	0.7696228	0.0128306	0.467578	0.0100008
0.129194	0.452219	0.00330361	22.3704	0.149723	0.716162	0.0374562	5.53738	0.0343587	0.785285	0.0129389	0.501647	0.0103415
0.129882	0.419327	0.00318714	20.6877	0.144224	0.619651	0.0366954	5.14463	0.0330642	0.740738	0.0125462	0.4990134	0.0102976
0.13057	0.38591	0.00307805	19.3213	0.138987	0.795956	0.0361869	4.797009	0.0318761	0.7619436	0.012704	0.437793	0.00962974
0.131259	0.362043	0.00299935	18.121	0.134999	0.74241	0.0363107	4.527503	0.0309195	0.7568745	0.012642	0.457891	0.00983296
0.131947	0.325652	0.00288274	16.4799	0.129066	0.812056	0.0364856	4.141453	0.0295249	0.779306	0.0128076	0.4491303	0.00972297
0.132635	0.294629	0.00278143	15.0342	0.123805	0.834065	0.0368028	3.80931	0.0282728	0.7967963	0.0129306	0.4577764	0.00980105
0.133323	0.27146	0.00269125	13.9484	0.119414	0.845568	0.0364095	3.548994	0.0272471	0.7873863	0.012834	0.441937	0.00961496
0.134011	0.249258	0.00261077	12.9427	0.115312	0.884427	0.0364155	3.3113	0.0262815	0.7974	0.012897	0.4343034	0.00951805
0.134699	0.234333	0.00253852	12.0558	0.111867	0.742017	0.0359159	3.11411	0.0254462	0.7523516	0.0125074	0.453116	0.00970645
0.135388	0.211244	0.00244387	10.9074	0.107103	0.700469	0.0357359	2.84957	0.0243071	0.739159	0.0123798	0.4585503	0.00975074
0.136076	0.192913	0.00237782	10.0705	0.103511	0.72727	0.0360777	2.65889	0.0234426	0.7584522	0.0125204	0.466878	0.00982328
0.136764	0.177089	0.00232109	9.32906	0.100714	0.735296	0.0358114	2.47587	0.0227896	0.742197	0.0124776	0.445193	0.00966378
0.137452	0.161888	0.00232743	8.63303	0.100295	0.755952	0.0371322	2.31839	0.0226521	0.759562	0.0129657	0.45435	0.0100279
0.13814	0.148032	0.00228853	7.89553	0.0980429	0.692373	0.0374899	2.153677	0.0220826	0.7446975	0.0129852	0.4685075	0.0102995
0.138828	0.135143	0.00226171	7.35728	0.0962912	0.751377	0.0380417	2.02339	0.0216606	0.7609578	0.0132835	0.4580745	0.0103062
0.139516	0.122571	0.00222335	6.72273	0.094013	0.721379	0.0384232	1.87957	0.0210894	0.7550247	0.0133664	0.46594	0.0105003
0.140205	0.114255	0.00218717	6.2927	0.0922174	0.693294	0.0382105	1.77408	0.0206607	0.7325323	0.0132761	0.454716	0.0104599
0.140893	0.104425	0.00214898	5.83259	0.0899498	0.698652	0.038541	1.67037	0.0200992	0.7411403	0.0133882	0.461595	0.0105658
0.141581	0.0969843	0.00212203	5.52674	0.0883511	0.736613	0.038752	1.59591	0.0197168	0.7515149	0.0135301	0.454788	0.0105253
0.142269	0.0977841	0.00212488	5.48097	0.0886015	0.669648	0.0386111	1.58805	0.0197627	0.727508	0.0133762	0.4605351	0.0106426
0.142957	0.0917199	0.00212032	5.18788	0.0877121	0.665557	0.0395374	1.533336	0.0194996	0.7510122	0.0136468	0.4882886	0.0110039
0.143645	0.0853966	0.00209389	4.97046	0.0862997	0.731807	0.0394933	1.471053	0.0191857	0.7579849	0.0137719	0.464191	0.0107774
0.144334	0.0877133	0.00211896	5.00637	0.0874066	0.672557	0.039863	1.48907	0.0194162	0.7502507	0.0137819	0.484098	0.0110707
0.145022	0.0887362	0.0021289	5.08926	0.0880501	0.699996	0.0397211	1.498959	0.0195942	0.7445917	0.0138099	0.464738	0.0109103
0.14571	0.0866927	0.00212282	4.92027	0.0876625	0.642465	0.0398004	1.46442	0.0194763	0.7284265	0.0137362	0.47457	0.0110873
0.146398	0.0855289	0.00214341	5.00996	0.0883748	0.75837	0.04038	1.47723	0.0196678	0.763927	0.0141435	0.457982	0.0109511
0.147086	0.09294	0.00216143	5.1644	0.0899319	0.600452	0.039558	1.51577	0.0200302	0.69987	0.0136106	0.4633658	0.0110747
0.147774	0.0938425	0.00218755	5.2273	0.0909518	0.616477	0.0401337	1.534476	0.0202575	0.714504	0.0138232	0.471746	0.0112321
0.148463	0.0955221	0.00220629	5.45733	0.0920575	0.736637	0.0400006	1.568184	0.020582	0.729796	0.0140407	0.430942	0.0107894
0.149151	0.103693	0.00223909	5.62061	0.0940697	0.556939	0.0396335	1.6193	0.0210207	0.675964	0.0135815	0.457985	0.0111792
0.149839	0.100264	0.00223785	5.45962	0.0936786	0.558408	0.0401219	1.58642	0.0209047	0.685184	0.0137385	0.467399	0.011347
0.150527	0.107908	0.00227991	5.88074	0.096116	0.604875	0.0398492	1.67287	0.0215273	0.683851	0.0137638	0.443668	0.0110863
0.151215	0.110313	0.00231098	6.11107	0.0974733	0.697731	0.0403187	1.72155	0.0218684	0.7151873	0.0140951	0.4335559	0.0109744
0.151903	0.119871	0.0023675	6.53689	0.100396	0.67529	0.0404609	1.824269	0.0225592	0.7122432	0.0140959	0.4410794	0.0110927
0.152591	0.128643	0.00240171	6.80335	0.102555	0.555278	0.039902	1.88971	0.023063	0.666313	0.0136949	0.44819	0.0112318
0.15328	0.131863	0.00244276	7.13855	0.104456	0.701039	0.0403401	1.954023	0.0235548	0.7042952	0.0141414	0.4200177	0.0109206
0.153968	0.139739	0.00249416	7.56141	0.107124	0.740118	0.0404014	2.04602	0.0242079	0.709388	0.0142542	0.4068777	0.0107953
0.154656	0.144376	0.00251708	7.62591	0.108375	0.615596	0.0403163	2.07238	0.0244701	0.6763173	0.013979	0.430262	0.0111498
0.155344	0.15058	0.00258418	8.00592	0.111226	0.683885	0.0414565	2.167019	0.0251304	0.717827	0.0144637	0.4430877	0.0113635
0.156032	0.156915	0.00263478	8.38689	0.113661	0.747976	0.0418257	2.25083	0.0257216	0.73677	0.0147161	0.4331611	0.0112837
0.15672	0.166391	0.00268862	8.85778	0.116523	0.764691	0.04173	2.35436	0.0264172	0.7327605	0.0147378	0.4207508	0.0111677
0.157409	0.174141	0.00273205	9.20135	0.11883	0.745131	0.0416368	2.43275	0.0269674	0.721314	0.0146843	0.417563	0.0111725
0.158097	0.179755	0.00277883	9.44291	0.1209	0.725099	0.0422848	2.49883	0.0274307	0.7311214	0.0148376	0.4379259	0.0114833
0.158785	0.186784	0.00289507	9.69916	0.126065	0.663087	0.0438561	2.572621	0.0285934	0.730638	0.015238	0.467113	0.012184
0.159473	0.195909	0.00307822	10.1741	0.134448	0.696382	0.0458744	2.67947	0.0305459	0.738337	0.0160345	0.4596067	0.0126509
0.160161	0.195937	0.00315523	10.1428	0.138004	0.670287	0.0466603	2.668495	0.0313677	0.7200047	0.0162936	0.4519942	0.0129097
0.160849	0.203573	0.00323972	10.496	0.142417	0.662725	0.0465293	2.73762	0.03243	0.6922184	0.0163073	0.425126	0.0127797
0.161537	0.213677	0.00339585	11.0146	0.149111	0.693794	0.049101	2.875004	0.0339472	0.7371638	0.0171897	0.459559	0.0135724
0.162226	0.215243	0.00347612	11.0921	0.152658	0.696305	0.0502197	2.89448	0.0347599	0.7409776	0.0175871	0.4625409	0.0138953
0.162914	0.211201	0.00351444	10.9386	0.15435	0.727032	0.0507542	2.84974	0.0351637	0.7374547	0.0178879	0.44395	0.013879
0.163602	0.222546	0.00363228	11.4707	0.160227	0.721752	0.0510729	2.966687	0.0365555	0.722289	0.0180374	0.429837	0.0139146
0.16429	0.221489	0.00369136	11.3876	0.162787	0.695418	0.0519957	2.950552	0.03713	0.7168028	0.0183009	0.436437	0.0142802
0.164978	0.222248	0.00378785	11.4764	0.166647	0.73761	0.0541377	2.980405	0.0379942	0.752483	0.019091	0.4553726	0.0148513
0.165666	0.234414	0.00391507	12.0474	0.172978	0.732228	0.0544889	3.10688	0.0394918	0.738169	0.0192496	0.442244	0.0148996
0.166355	0.226932	0.00392013	11.5356	0.173091	0.607084	0.0547838	2.99563	0.0394697	0.6982078	0.0190551	0.4583637	0.0154392
0.167043	0.224788	0.00398487	11.6381	0.175967	0.770444	0.055653	2.998599	0.040195	0.7303522	0.0198371	0.415351	0.0149596
0.167731	0.233738	0.00407486	11.8602	0.180773	0.608164	0.0551994	3.05479	0.0412952	0.667985	0.0193104	0.4246803	0.0153971
0.168419	0.231825	0.00417213	11.8271	0.184372	0.654322	0.0579938	3.060554	0.0420787	0.7134196	0.0203159	0.452419	0.0161783
0.169107	0.228644	0.00422418	11.8175	0.18678	0.767499	0.0584965	3.03906	0.0426891	0.7266616	0.0208744	0.4127122	0.0157315
0.169795	0.233518	0.00433257	11.9557	0.191674	0.692933	0.0597916	3.08274	0.0437831	0.7157526	0.0210969	0.436476	0.0164747
0.170483	0.222128	0.00434628	11.3391	0.191466	0.632356	0.061624	2.95417	0.0436532	0.7172516	0.0215097	0.467151	0.0173591
0.171172	0.215198	0.00437552	10.8485	0.192265	0.503192	0.0630002	2.8581	0.0437451	0.694764	0.021568	0.504373	0.0183766
0.17186	0.222631	0.00447202	11.2466	0.197734	0.53928	0.0619391	2.924503	0.045109	0.661295	0.0214504	0.4503503	0.0177016
0.172548	0.218697	0.00458279	11.3486	0.201835	0.77019	0.0650763	2.938641	0.046087	0.744148	0.0231918	0.430612	0.017642
0.173236	0.218612	0.00465262	11.2179	0.205192	0.668968	0.0655054	2.912114	0.0468345	0.7072011	0.0230799	0.4385761	0.0181754
0.173924	0.214394	0.00469194	11.107	0.207218	0.740395	0.0654718	2.866048	0.0473639	0.700381	0.0234139	0.396862	0.0176248
0.174612	0.211396	0.00479373	11.0723	0.211183	0.826491	0.0679561	2.85758	0.0482725	0.7372408	0.0245192	0.396051	0.0179712
0.175301	0.205267	0.00483263	10.6068	0.212546	0.687026	0.0692001	2.76461	0.0484961	0.705102	0.0244915	0.427618	0.019073
0.175989	0.199757	0.00486606	10.3336	0.213898	0.67777	0.0699105	2.69736	0.0487998	0.694135	0.0247555	0.420019	0.0192568
0.176677	0.196899	0.00491917	10.2924	0.215955	0.75341	0.071215	2.68201	0.0492903	0.7163133	0.0254732	0.408108	0.0192274
0.177365	0.197115	0.00496778	10.38	0.218648	0.815183	0.0708249	2.6837	0.049989	0.7082504	0.0256804	0.369656	0.0185527
0.178053	0.182778	0.00491862	9.608	0.215366	0.742332	0.072293	2.51634	0.049129	0.699404	0.025901	0.394861	0.0194615
0.178741	0.185709	0.00502195	9.62561	0.220459	0.64512	0.072719	2.523304	0.0502833	0.662341	0.025762	0.4007759	0.0200396
0.179429	0.178612	0.00516727	9.19407	0.224488	0.56952	0.0792259	2.468892	0.0509632	0.7156488	0.0274382	0.495505	0.0228313
0.180118	0.17583	0.00523608	9.00356	0.227748	0.522825	0.0797893	2.41949	0.0517067	0.685716	0.0275269	0.485036	0.0231511
# 0.180806	0.17607	0.00529901	9.17866	0.232202	0.653737	0.0775391	2.413182	0.0529573	0.654581	0.0275812	0.388131	0.0212383
# 0.181494	0.162148	0.00525654	8.50358	0.228981	0.64258	0.0794717	2.26207	0.0521252	0.6608793	0.0281744	0.400389	0.0219299
# 0.182182	0.154709	0.00530616	8.29736	0.229863	0.760134	0.0825386	2.213291	0.0523079	0.710707	0.029641	0.398733	0.0222019
# 0.18287	0.142405	0.00521969	7.61086	0.22526	0.67841	0.0827028	2.056268	0.0511625	0.6800743	0.0294232	0.4042825	0.0226858
# 0.183558	0.136011	0.00526933	7.34081	0.226051	0.705252	0.0858034	2.00301	0.0512558	0.709763	0.0305111	0.423999	0.0235822
# 0.184247	0.150325	0.00546454	7.86869	0.236428	0.583853	0.0855272	2.129831	0.0536677	0.6642657	0.0299717	0.4322495	0.0241773
# 0.184935	0.136824	0.00534094	7.35162	0.230956	0.683031	0.0838123	1.97765	0.0525264	0.6477288	0.0300608	0.3665724	0.0226143
# 0.185623	0.126433	0.00540523	6.90958	0.230862	0.724158	0.0897142	1.89925	0.0523035	0.71158	0.0320148	0.416932	0.024506
# 0.186311	0.121723	0.00539872	6.81929	0.230996	0.830796	0.0889237	1.85076	0.0524803	0.706554	0.0324261	0.3603121	0.0231559
# 0.186999	0.113147	0.00545138	6.34015	0.23072	0.773312	0.0938758	1.7683	0.0521661	0.7359109	0.0336529	0.4200766	0.0254258
# 0.187687	0.111278	0.00543951	6.27033	0.231371	0.788434	0.0918377	1.72736	0.0524532	0.6961538	0.0332992	0.369201	0.02425
# 0.188376	0.104174	0.0053833	5.74756	0.228334	0.640191	0.0919228	1.61464	0.0516107	0.6481403	0.0326991	0.387555	0.0252853
# 0.189064	0.100029	0.0054714	5.51377	0.230526	0.61064	0.0958406	1.57697	0.051948	0.6666259	0.0337752	0.422002	0.0268729
# 0.189752	0.0820248	0.005344	4.74815	0.221759	0.682078	0.0986617	1.39624	0.0497974	0.6929132	0.0350806	0.416614	0.0272016
# 0.19044	0.0635632	0.00504422	3.63475	0.206235	0.492807	0.0974271	1.14229	0.0459208	0.6198069	0.033826	0.427093	0.0280791
# 0.191128	0.0539796	0.00479018	3.27302	0.196527	0.567465	0.0915951	1.00792	0.0440041	0.558166	0.0327463	0.32367	0.0249363
# 0.191816	0.0506061	0.00480754	2.509	0.194028	0.0846386	0.0961979	0.902585	0.0425086	0.483242	0.0311039	0.472837	0.0307672
# 0.192504	0.0440314	0.00455175	2.06411	0.184119	-0.0214552	0.0905434	0.774949	0.0402358	0.391616	0.0286027	0.423132	0.0297313
# 0.193193	0.0242219	0.00422826	1.39459	0.165083	0.195397	0.0913947	0.5875624	0.0358217	0.42696	0.030536	0.357995	0.0279613
# 0.193881	0.0203189	0.00398986	1.14893	0.156295	0.147161	0.0856389	0.5034951	0.0339337	0.355379	0.0285088	0.30256	0.026305
# 0.194569	0.0105035	0.00376671	0.606368	0.142304	0.0860259	0.0866575	0.3806797	0.0302222	0.335088	0.0283548	0.30959	0.0272546
# 0.195257	0.0122409	0.00390675	0.523388	0.147568	-0.046301	0.0899066	0.381521	0.0310216	0.315118	0.028193	0.351091	0.0297587
# 0.195945	0.0111147	0.00392125	0.675447	0.149403	0.118056	0.0888729	0.3845269	0.031974	0.3261297	0.0294461	0.28441	0.0274983
# 0.196633	0.00775734	0.00404217	0.508854	0.150568	0.112329	0.0952023	0.360128	0.0318055	0.350582	0.0313812	0.313988	0.0296983
# 0.197322	0.00566971	0.00389046	0.338782	0.14428	0.0556075	0.0922698	0.3080655	0.0302804	0.302359	0.0299986	0.288251	0.0292904
# 0.19801	0.00762673	0.00428551	0.18692	0.156862	-0.140137	0.103673	0.325153	0.032074	0.315269	0.0315828	0.396227	0.0354063
# 0.198698	0.0110575	0.00446337	0.0925356	0.164615	-0.345881	0.106762	0.327213	0.0332344	0.270505	0.0302176	0.4457032	0.0387878
# 0.199386	0.0123371	0.00459241	-0.0650077	0.169054	-0.520446	0.110163	0.310738	0.0335248	0.232145	0.0289768	0.487265	0.041981
# 0.200074	0.00720947	0.00441967	0.2295	0.164221	-0.0902449	0.104505	0.297687	0.0340458	0.266907	0.0322377	0.3192446	0.035257
# 0.200762	0.0139692	0.0050188	0.396211	0.189872	-0.213622	0.115184	0.369807	0.0394773	0.275598	0.0340798	0.387909	0.0404319
# 0.20145	0.0146663	0.0051318	0.761816	0.199225	0.0522548	0.112224	0.401056	0.0429065	0.290703	0.0365296	0.2770675	0.0356626
# 0.202139	0.0169426	0.00496914	0.682027	0.198467	-0.0979792	0.102069	0.364924	0.0428765	0.192117	0.0311101	0.240877	0.0348351
# 0.202827	0.00685693	0.00561453	0.671384	0.210766	0.276483	0.130571	0.36944	0.0453999	0.368771	0.0453587	0.25528	0.037739
# 0.203515	0.00722469	0.0061191	0.686981	0.228706	0.27499	0.143332	0.385674	0.0490863	0.3917805	0.0494734	0.281246	0.0419173
# #0.204203	-0.00702038	0.00616052	0.411003	0.214806	0.595227	0.158806	0.296737	0.0458787	0.485209	0.0586665	0.230305	0.0404182
# 0.204891	0.0092426	0.00703609	0.679772	0.264728	0.192601	0.163012	0.391535	0.0566735	0.36995	0.0550892	0.296773	0.0493409
# 0.205579	0.00841206	0.00744376	0.47243	0.277956	0.0583433	0.174627	0.354374	0.058673	0.332112	0.0568003	0.319592	0.0557191
# 0.206268	0.0232925	0.00867133	0.54923	0.339067	-0.445288	0.186838	0.422784	0.0709062	0.2070444	0.04962	0.4237012	0.0709831
# #0.206956	0.00448595	0.009238	0.934588	0.348702	0.576978	0.212849	0.389333	0.0772016	0.422397	0.0804129	0.170121	0.0510323
# 0.207644	0.0283804	0.0120632	1.81856	0.49843	0.376501	0.22578	0.588135	0.112467	0.3219775	0.0832143	0.1559977	0.057922
# 0.208332	0.0669796	0.0184007	2.83908	0.800298	-0.273162	0.280504	0.895259	0.179238	0.169092	0.0778963	0.2995643	0.103681
# 0.20902	0.0249049	0.0223639	0.551184	0.924252	-0.504952	0.418266	0.361456	0.19683	0.06501851	0.0834802	0.296437	0.17825

#SSDD Data
#q / A-1	I / cm-1	sI / cm-1	I_sample / cm-1	sI_sample / cm-1	I_solvent / cm-1	sI_solvent / cm-1	I_raw_sample / a.u.	sI_raw_sample / a.u.	I_raw_solvent / a.u.	sI_raw_solvent / a.u.	I_raw_ec / a.u.	sI_raw_ec / a.u.
0.021717	194.428	0.109561	9234.19	5.2024	1.02636	0.0497902	57648.195	32.4768	15.475	0.532103	3.76864	0.262586
0.0244938	175.894	0.062618	8353.94	2.97335	0.935228	0.0287658	52152.926	18.5616	14.2297	0.306601	3.57389	0.153655
0.0272707	157.336	0.0491077	7472.6	2.33181	0.882764	0.023944	46651.215	14.5566	14.0055	0.252219	4.00247	0.134832
0.0300475	140.09	0.0424241	6653.63	2.01443	0.886083	0.0215958	41538.473	12.5754	13.7566	0.22885	3.68673	0.118472
0.0328243	124.207	0.0380183	5899.36	1.80521	0.85481	0.0205182	36829.855	11.2692	13.5522	0.216172	3.86452	0.115436
0.0356011	110.37	0.0327571	5242.22	1.55538	0.833848	0.0186083	32727.55	9.70961	13.2992	0.19573	3.856458	0.1054
0.038378	97.0447	0.0273684	4609.43	1.29949	0.819484	0.0164934	28777.238	8.11221	13.1288	0.173271	3.85413	0.0938811
0.0411548	84.345	0.02316	4006.33	1.09965	0.805894	0.0149432	25012.316	6.86466	13.021	0.156626	3.91066	0.0858354
0.0439316	72.0172	0.0191661	3420.92	0.909998	0.800221	0.013284	21357.676	5.68072	12.8641	0.139417	3.811364	0.0758869
0.0467084	60.8488	0.0165202	2890.53	0.784351	0.783051	0.0122779	18046.582	4.89635	12.5294	0.129015	3.664882	0.0697758
0.0494853	50.4438	0.0144902	2396.42	0.687944	0.78089	0.0118986	14962.066	4.2945	12.6163	0.124704	3.788001	0.0683316
0.0522621	40.7084	0.0125985	1934.11	0.5981	0.774739	0.0114706	12075.958	3.73362	12.51874	0.120212	3.760059	0.065882
0.0550389	32.2152	0.0108731	1530.79	0.516148	0.779095	0.011168	9558.201	3.22201	12.604	0.117002	3.79764	0.0642237
0.0578157	24.6624	0.00924751	1172.1	0.438932	0.757979	0.0108038	7319.038	2.73995	12.411	0.112829	3.85735	0.0629014
0.0605926	18.284	0.00775419	869.185	0.367995	0.737894	0.0104468	5428.02	2.29709	12.1888	0.108852	3.87178	0.0613496
0.0633694	13.1362	0.00641164	624.78	0.304202	0.778437	0.0102466	3902.19	1.89883	12.513	0.107526	3.706211	0.0585189
0.0661462	9.00958	0.00518892	428.788	0.246093	0.75656	0.00996733	2678.71	1.53603	12.3303	0.104213	3.787009	0.0577542
0.068923	5.90799	0.00411262	281.479	0.19492	0.739077	0.00970764	1759.14	1.21651	12.17667	0.101211	3.84325	0.0568611
0.0716999	3.63861	0.00316661	173.732	0.149899	0.754254	0.0095475	1086.5	0.935384	12.3456	0.0997083	3.833455	0.0555611
0.0744767	2.08537	0.00236025	99.9578	0.11147	0.742901	0.00935661	625.9914	0.695353	12.2925	0.0974406	3.92115	0.0550335
[...]
0.404919	0.0149886	0.000204714	1.55969	0.00787605	0.678019	0.00455664	11.7829	0.0472158	11.6475	0.0469436	4.04766	0.0276734
0.407696	0.0150832	0.00020522	1.55349	0.00789671	0.669472	0.00456659	11.7667	0.0473173	11.5896	0.0469598	4.09408	0.0279106
0.410473	0.0148403	0.000204883	1.54196	0.00788119	0.669474	0.00456188	11.6638	0.0472363	11.5316	0.0469677	4.03038	0.0277669
0.413249	0.0147714	0.000206274	1.54902	0.00792639	0.677732	0.00460201	11.7335	0.0474954	11.6764	0.0473797	4.08309	0.0280177
0.416026	0.0146426	0.000206606	1.54326	0.00793474	0.678018	0.00461428	11.699	0.047539	11.6825	0.0475054	4.08609	0.028095
0.418803	0.0144822	0.000206137	1.52023	0.00791199	0.665691	0.00460898	11.5689	0.0473694	11.5637	0.0473588	4.11429	0.0282488
0.42158	0.0142792	0.000205857	1.51115	0.00789527	0.666139	0.00460928	11.508	0.0472632	11.56106	0.0473721	4.105609	0.0282301
0.424357	0.014137	0.000205737	1.50584	0.00788597	0.667293	0.00461179	11.4739	0.0472027	11.57294	0.0474059	4.103812	0.0282296
0.427134	0.0134605	0.000208567	1.49016	0.00797349	0.680441	0.004698	11.3497	0.0477328	11.6775	0.0484172	4.04949	0.0285118
0.42991	0.0135177	0.000212911	1.49173	0.00814197	0.679526	0.00479325	11.3583	0.048747	11.6645	0.0493998	4.04701	0.0290977
0.432687	0.0137876	0.000215703	1.49227	0.00825943	0.669711	0.00484446	11.3663	0.0494492	11.5582	0.0498649	4.05651	0.0295411
0.435464	0.0132459	0.000217308	1.46972	0.00830348	0.672247	0.00489945	11.2129	0.0496999	11.5642	0.0504724	4.030488	0.0297972
0.438241	0.0131719	0.000220138	1.46508	0.00840238	0.671346	0.00497323	11.2228	0.0502562	11.6267	0.0511524	4.110673	0.0304155
0.441018	0.0131427	0.000222183	1.46547	0.00847927	0.67277	0.00502068	11.2242	0.0507187	11.64136	0.0516526	4.10847	0.0306853
0.443795	0.013047	0.000218537	1.46792	0.00833812	0.678363	0.00494048	11.2245	0.0498871	11.67873	0.0508865	4.077559	0.030068
0.446571	0.0128255	0.000215474	1.46205	0.00822075	0.68208	0.00487179	11.14	0.0492154	11.6325	0.0502914	3.979	0.0294134
0.449348	0.0129683	0.000214807	1.4616	0.00819733	0.676297	0.00485449	11.1618	0.0490543	11.6109	0.0500314	4.02971	0.0294745
0.452125	0.0131962	0.000215034	1.47389	0.00821109	0.677468	0.00485413	11.2545	0.0491371	11.6547	0.050003	4.06267	0.0295224
0.454902	0.0129856	0.000214209	1.46284	0.00817325	0.676636	0.00484237	11.1803	0.0489024	11.635	0.049887	4.05181	0.0294394
0.457679	0.0128489	0.000213971	1.4535	0.00815928	0.674355	0.00484227	11.1251	0.0488061	11.614	0.0498671	4.0581	0.0294771
0.460456	0.0127273	0.000214389	1.45532	0.00816856	0.680428	0.00485885	11.1432	0.0488582	11.698	0.0500596	4.0721	0.0295353
0.463232	0.0127587	0.000214079	1.45294	0.00815907	0.677331	0.00484934	11.1247	0.0488016	11.6549	0.0499509	4.064672	0.0294986
0.466009	0.0130605	0.000214166	1.45715	0.00817262	0.66924	0.00484029	11.1631	0.0488777	11.5828	0.049788	4.08961	0.0295841
0.468786	0.0128054	0.000214064	1.45776	0.00816174	0.679418	0.00484548	11.1428	0.0488326	11.6568	0.0499461	4.039905	0.0294034
0.471563	0.0127596	0.000213987	1.45177	0.00815573	0.676364	0.00484707	11.1177	0.0487801	11.644	0.0499214	4.065178	0.0294968
0.47434	0.012577	0.000214205	1.44775	0.0081548	0.680086	0.00486196	11.1049	0.0487603	11.7107	0.0500726	4.09045	0.0295934
0.477116	0.0124629	0.000214613	1.45447	0.00816644	0.689789	0.00487534	11.1347	0.0488472	11.8016	0.0502888	4.065513	0.029516
0.479893	0.0124984	0.000214294	1.44677	0.00815523	0.682277	0.00486711	11.097	0.0487631	11.7332	0.0501414	4.08702	0.0295931
0.48267	0.0123209	0.000214035	1.43896	0.00813951	0.68278	0.0048675	11.0447	0.0486632	11.7324	0.0501552	4.07962	0.0295755
0.485447	0.0123805	0.000214451	1.44611	0.00815694	0.686231	0.00487529	11.0889	0.0487759	11.7721	0.0502558	4.07882	0.029582
0.488224	0.0120512	0.000213933	1.42384	0.00812291	0.68093	0.00487879	10.9707	0.0485305	11.7489	0.0502222	4.121519	0.0297458
0.491001	0.0122203	0.000214257	1.43673	0.00814389	0.684814	0.00487691	11.0313	0.0486866	11.7572	0.0502629	4.080716	0.0296117
0.493777	0.0119912	0.000214007	1.42431	0.00812489	0.683583	0.00488137	10.9626	0.0485517	11.7593	0.050285	4.098881	0.0296879
0.496554	0.0117804	0.000214614	1.42841	0.00813768	0.69487	0.00490611	10.9923	0.0486297	11.8993	0.050596	4.10729	0.0297258
0.499331	0.0118549	0.0002145	1.42711	0.00813692	0.690998	0.00489968	10.9828	0.0486248	11.8513	0.0505107	4.104422	0.0297254
0.502108	0.0119121	0.000214514	1.42267	0.00813802	0.685277	0.00489943	10.9704	0.048614	11.813	0.0504464	4.135994	0.0298497
0.504885	0.0116909	0.000214375	1.41614	0.00812486	0.68845	0.0049046	10.9251	0.0485313	11.8418	0.0505263	4.126738	0.0298272
0.507662	0.0123217	0.000215487	1.44226	0.00818874	0.685385	0.00490695	11.0991	0.0489347	11.8263	0.0505124	4.14922	0.0299196
0.510438	0.0120083	0.00021501	1.42763	0.00815956	0.68559	0.00490786	11.0058	0.048745	11.825	0.0505266	4.145187	0.0299151
0.513215	0.0121392	0.000214937	1.42833	0.00816226	0.68118	0.00490035	11.0104	0.0487619	11.7737	0.0504238	4.14553	0.0299205
0.515992	0.0118403	0.000214269	1.41794	0.00812675	0.68422	0.00489591	10.9379	0.0485435	11.7951	0.0504097	4.129937	0.0298287
0.518769	0.0119345	0.000214951	1.43377	0.00815293	0.6933	0.00491117	11.0467	0.0487102	11.9201	0.0505992	4.15036	0.0298571
0.521546	0.0117804	0.000214253	1.42215	0.0081201	0.689859	0.00490193	10.9822	0.0484939	11.895	0.050469	4.16708	0.0298715
0.524323	0.0119817	0.000214158	1.41992	0.00811998	0.680431	0.00489609	11.0018	0.0484639	11.8474	0.0502919	4.236045	0.0300723
0.527099	0.0121464	0.000214183	1.43364	0.00812868	0.685148	0.00488845	11.0714	0.0485443	11.8726	0.05027	4.20306	0.0299102
0.529876	0.0121209	0.000214246	1.4418	0.00813027	0.692645	0.00489073	11.1138	0.0485698	11.94435	0.0503519	4.18539	0.0298059
0.532653	0.0117964	0.000213404	1.4331	0.00808901	0.698007	0.00488141	11.0394	0.0483289	11.9694	0.0503236	4.143969	0.0296103
0.53543	0.0114816	0.000213343	1.42429	0.00807066	0.702913	0.00489696	11.0089	0.0481896	12.0729	0.0504647	4.194415	0.0297453
0.538207	0.0117026	0.00021306	1.43093	0.00806962	0.699833	0.00488025	11.0426	0.0481969	12.0224	0.0502896	4.17858	0.0296481
0.540983	0.0117477	0.000212934	1.43747	0.00806699	0.703355	0.00487508	11.0766	0.0481939	12.0507	0.0502684	4.16437	0.0295505
0.54376	0.0123413	0.000213078	1.46121	0.00809667	0.699794	0.00485264	11.20921	0.0484101	11.9798	0.0500464	4.13234	0.0293931
0.546537	0.0122236	0.000212533	1.44476	0.00806776	0.691112	0.00484896	11.141	0.0481916	11.9428	0.0498955	4.20334	0.029601
0.549314	0.011955	0.000212124	1.43758	0.00804168	0.695566	0.00485081	11.0978	0.0480261	11.9981	0.0499361	4.20678	0.0295688
0.552091	0.0119611	0.000212342	1.44067	0.00804648	0.697803	0.00485951	11.1384	0.0480416	12.0642	0.0499984	4.250603	0.0296778
0.554868	0.0119212	0.000212217	1.4436	0.00803782	0.701669	0.00486079	11.1688	0.0479835	12.1323	0.0500103	4.275571	0.0296883
0.557644	0.0118598	0.000211125	1.44081	0.00799707	0.701766	0.00483516	11.1335	0.0477504	12.0997	0.0497794	4.23863	0.0294628
0.560421	0.0116193	0.000210846	1.44068	0.00797524	0.710794	0.00484063	11.1415	0.0476126	12.2221	0.0498682	4.256856	0.0294303
0.563198	0.0118862	0.000210587	1.44562	0.00797189	0.704606	0.0048279	11.1978	0.0475783	12.1974	0.0496567	4.30931	0.0295153
0.565975	0.0115721	0.000209948	1.43958	0.00793616	0.711708	0.00482541	11.1565	0.0473605	12.2739	0.0496757	4.30194	0.0294093
0.568752	0.0119607	0.000210182	1.46007	0.00795991	0.713338	0.00481508	11.2745	0.0475327	12.2744	0.0495957	4.281529	0.0292916
0.571529	0.0119292	0.000209588	1.45127	0.00793568	0.707496	0.00480325	11.2293	0.0473707	12.2242	0.0494246	4.30151	0.0293186
0.574305	0.0119122	0.000209825	1.45368	0.0079405	0.710066	0.00481312	11.2655	0.047386	12.294	0.0495019	4.345102	0.0294289
0.577082	0.0118709	0.0002095	1.45051	0.00792574	0.709098	0.00480826	11.2534	0.0472883	12.2972	0.0494327	4.36097	0.0294377
0.579859	0.0118928	0.000209796	1.46597	0.00793836	0.720633	0.00481353	11.3344	0.0473925	12.4031	0.0495765	4.328877	0.0292886
0.582636	0.0118134	0.000209834	1.46407	0.00793367	0.722129	0.00482086	11.3437	0.0473463	12.46033	0.049622	4.37248	0.029395
0.585413	0.0119863	0.000210067	1.47046	0.00794961	0.720671	0.00481871	11.3773	0.0474534	12.4316	0.0496033	4.35966	0.0293747
0.58819	0.0120105	0.000214841	1.46818	0.00812822	0.71793	0.0049304	11.385	0.0485035	12.4405	0.0507021	4.40476	0.0301695
0.590966	0.0119061	0.000218564	1.4699	0.00826488	0.723264	0.00502025	11.3936	0.049325	12.4991	0.0516625	4.40039	0.0306537
0.593743	0.0120961	0.000221347	1.47148	0.00837547	0.717316	0.00507853	11.4191	0.0499763	12.4587	0.0522018	4.43263	0.0311371
0.59652	0.0121801	0.000224303	1.48361	0.00848815	0.723824	0.00514547	11.5027	0.0506582	12.5499	0.0529138	4.448946	0.0315049
0.599297	0.012545	0.00022713	1.50467	0.00860771	0.726812	0.005197	11.6362	0.0513963	12.5887	0.0534584	4.45311	0.0317949
0.602074	0.0120701	0.000228498	1.48928	0.00864165	0.732533	0.00524722	11.5371	0.0515842	12.65	0.0540149	4.44681	0.0320253
0.60485	0.012025	0.000230327	1.48306	0.0087049	0.729271	0.00529546	11.5278	0.0519314	12.6672	0.0544374	4.507693	0.0324738
0.607627	0.0122408	0.000231713	1.49211	0.00876977	0.728319	0.0053142	11.5583	0.0523514	12.6073	0.0546754	4.45413	0.0324985
0.610404	0.0121526	0.000233696	1.50082	0.00883821	0.738636	0.0053666	11.6227	0.0527631	12.747	0.055256	4.4748	0.0327388
0.613181	0.0124237	0.000234607	1.50584	0.0088804	0.732358	0.00537938	11.6755	0.0530039	12.7135	0.05531	4.51881	0.0329748
0.615958	0.0122608	0.000235488	1.50308	0.00890822	0.736329	0.00540542	11.6506	0.0531734	12.7458	0.0556165	4.503154	0.0330581
0.618735	0.0125697	0.000237654	1.50985	0.00899541	0.730019	0.00544957	11.73833	0.0536656	12.7571	0.0559461	4.596731	0.0335828
0.621511	0.0123144	0.000239285	1.50493	0.00904312	0.735774	0.00550176	11.7283	0.0539278	12.86341	0.0564773	4.639344	0.0339175
0.624288	0.0122961	0.000241018	1.50971	0.00910546	0.740296	0.00554494	11.769	0.0542974	12.9367	0.0569275	4.661662	0.0341728
0.627065	0.0121588	0.000244214	1.52045	0.009221	0.754092	0.00562393	11.8227	0.0550125	13.0734	0.0578492	4.634229	0.0344423
0.629842	0.0124581	0.000253737	1.51954	0.00959496	0.742004	0.00582811	11.8148	0.0572493	12.9277	0.0598848	4.62974	0.0358373
0.632619	0.0124976	0.000261126	1.53242	0.00987658	0.7508	0.0059955	11.8838	0.0589603	13.0093	0.0616891	4.60619	0.0367073
0.635396	0.0125393	0.00026795	1.53907	0.0101349	0.754535	0.00615191	11.9302	0.0605099	13.0622	0.0633156	4.6162	0.0376396
0.638172	0.0126264	0.000274053	1.54566	0.0103662	0.756495	0.00629157	11.9874	0.0618871	13.1154	0.0647333	4.649398	0.0385422
0.640949	0.0124958	0.000279065	1.54109	0.0105512	0.757799	0.00641152	11.9519	0.0629938	13.1176	0.0659943	4.635123	0.0392292
0.643726	0.012112	0.000284264	1.52048	0.010726	0.7559	0.00655373	11.8486	0.0639859	13.1429	0.06739	4.68723	0.0402447
0.646503	0.0120682	0.000290377	1.525	0.0109526	0.761173	0.00669892	11.8829	0.0653405	13.2161	0.0689084	4.699785	0.0410923
0.64928	0.0123897	0.00029653	1.53744	0.0111997	0.758916	0.00682519	11.9631	0.0668327	13.1943	0.0701877	4.704917	0.0419125
0.652057	0.0125782	0.000303216	1.55971	0.0114631	0.76956	0.00696761	12.0825	0.0684603	13.2824	0.0717791	4.664658	0.0425373
0.654833	0.0128957	0.00031008	1.57081	0.0117326	0.76638	0.0071148	12.1801	0.0700598	13.2982	0.0732048	4.722873	0.0436261
0.65761	0.0130986	0.000315457	1.57284	0.0119512	0.760295	0.00722218	12.1737	0.0713903	13.19109	0.0743136	4.683628	0.0442812
0.660387	0.0131021	0.000323148	1.58758	0.0122367	0.771958	0.00740449	12.2823	0.0731028	13.3588	0.0762391	4.71767	0.0453063
0.663164	0.0123251	0.000329152	1.55196	0.012412	0.772978	0.0075967	12.1176	0.0740314	13.4789	0.0780794	4.836398	0.0467703
0.665941	0.0127034	0.000336253	1.56772	0.0127011	0.771211	0.00773829	12.2101	0.0757908	13.4473	0.079538	4.82437	0.0476407
0.668717	0.0129409	0.000343652	1.59152	0.0129999	0.781224	0.00788824	12.319	0.0776608	13.4902	0.0812686	4.742694	0.0481867
0.671494	0.0127368	0.000351163	1.59119	0.0132702	0.788707	0.00807524	12.3228	0.0792696	13.5889	0.0832423	4.75477	0.0492399
0.674271	0.0128831	0.000359123	1.59564	0.0135751	0.786717	0.00825399	12.3692	0.0810786	13.6005	0.0850182	4.793161	0.0504714
0.677048	0.0130089	0.000366983	1.59844	0.0138788	0.784175	0.00842771	12.3909	0.0828941	13.5786	0.0867761	4.80184	0.0516031
0.679825	0.0127537	0.000375688	1.60669	0.0141944	0.80046	0.00864189	12.4233	0.0848195	13.7336	0.0891804	4.76244	0.0525161
0.682602	0.0123424	0.000383833	1.58993	0.0144733	0.802675	0.00885947	12.3362	0.0864349	13.79258	0.0913945	4.798716	0.0539088
0.685378	0.0133232	0.000396118	1.63216	0.0149855	0.799207	0.0090917	12.6413	0.089522	13.8295	0.0936351	4.88388	0.0556439
0.688155	0.0134992	0.000405217	1.62861	0.0153407	0.789684	0.00928891	12.6267	0.0916291	13.7323	0.0955564	4.899594	0.0570779
0.690932	0.0135365	0.000415848	1.63617	0.0157449	0.794309	0.00953076	12.6715	0.0940634	13.7819	0.0980984	4.89458	0.0584609
0.693709	0.0137901	0.000425454	1.63618	0.0161182	0.784692	0.00974074	12.704	0.096251	13.7301	0.100063	4.961421	0.0601504
0.696486	0.0132787	0.000434941	1.6371	0.0164361	0.804843	0.0100018	12.7221	0.0981353	13.9894	0.102907	4.986872	0.0614413
0.699263	0.0139685	0.000444697	1.66827	0.0168549	0.803575	0.0101733	12.8993	0.100726	13.9421	0.104718	4.951216	0.0624043
0.702039	0.0131736	0.000453557	1.64653	0.0171315	0.816377	0.0104383	12.7738	0.102321	14.1111	0.107544	4.97209	0.0638373
0.704816	0.0133465	0.000465813	1.65285	0.017582	0.814866	0.0107334	12.8987	0.104902	14.2538	0.110275	5.148127	0.0662726
0.707593	0.0134256	0.000472816	1.66088	0.0178786	0.818282	0.0108609	12.8544	0.106831	14.1167	0.111953	4.953673	0.0663184
0.71037	0.0138248	0.000486165	1.67826	0.0183998	0.817019	0.0111503	13.0029	0.109923	14.177	0.114779	5.03614	0.0684097
0.713147	0.0136455	0.000495853	1.66955	0.0187523	0.816863	0.0113873	12.9527	0.112005	14.183	0.117203	5.04468	0.0698993
0.715924	0.0140161	0.000509432	1.70049	0.0192961	0.827533	0.0116673	13.1259	0.115357	14.2705	0.120282	5.003577	0.0712231
0.7187	0.0136942	0.000520063	1.68171	0.0196678	0.824734	0.0119434	13.0328	0.117498	14.2831	0.123005	5.05333	0.0731644
0.721477	0.0144192	0.000529681	1.71477	0.0200837	0.823647	0.0121092	13.2483	0.120047	14.2873	0.124666	5.071918	0.0742777
0.724254	0.0132874	0.000532697	1.69389	0.0200995	0.849925	0.0122819	13.1316	0.12007	14.6208	0.126696	5.100032	0.0748277
0.727031	0.0136102	0.000536036	1.71113	0.0202442	0.851453	0.0123393	13.2565	0.120947	14.6712	0.127238	5.135647	0.0752802
0.729808	0.0139898	0.000537424	1.72532	0.0203335	0.848384	0.0123325	13.3234	0.12155	14.59461	0.127217	5.091084	0.0751371
0.732584	0.0141996	0.000542026	1.73637	0.0205261	0.849252	0.0124186	13.384	0.122742	14.5891	0.128149	5.073889	0.0755739
0.735361	0.0134405	0.000550195	1.72048	0.0207606	0.865372	0.0126845	13.3179	0.124051	14.8402	0.130949	5.14209	0.0770819
0.738138	0.0141967	0.000559581	1.74268	0.0211686	0.854408	0.0128444	13.4835	0.126499	14.7624	0.132362	5.197717	0.0785399
0.740915	0.013705	0.000565555	1.7217	0.021357	0.856308	0.013021	13.3467	0.127583	14.7735	0.13423	5.18552	0.0795249
0.743692	0.0129197	0.000575022	1.72123	0.0216443	0.885749	0.0133123	13.3365	0.129312	15.105	0.137618	5.17069	0.0805175
0.746469	0.0141655	0.000588069	1.77686	0.0222329	0.882928	0.0135122	13.7006	0.132942	15.1035	0.139582	5.205272	0.0819432
0.749245	0.013653	0.000593652	1.73763	0.0223975	0.871015	0.0136894	13.479	0.133784	15.0076	0.141166	5.25329	0.0835202
0.752022	0.0148282	0.000604121	1.78893	0.022912	0.867419	0.0138048	13.7429	0.137095	14.8596	0.142556	5.137085	0.0838187
0.754799	0.013685	0.000615533	1.78478	0.023236	0.907503	0.0141803	13.7124	0.139032	15.3207	0.146959	5.12766	0.0850195
0.757576	0.013598	0.000627866	1.78559	0.0236718	0.911459	0.0144956	13.77544	0.141534	15.476	0.150015	5.247172	0.0873512
0.760353	0.014926	0.000639175	1.80221	0.0242039	0.87432	0.0146456	13.9396	0.144647	15.1542	0.150817	5.371692	0.0897922
0.76313	0.0134478	0.000644478	1.7521	0.0242871	0.890379	0.0148905	13.5778	0.1451	15.2504	0.153778	5.27077	0.0904043
0.765906	0.0134513	0.000661908	1.8067	0.0249425	0.933903	0.0152949	13.8866	0.149232	15.7003	0.158679	5.204781	0.0913619
0.768683	0.0132882	0.000658764	1.74382	0.0248745	0.889823	0.0151695	13.3619	0.148916	14.9356	0.157442	4.932429	0.0904771
0.77146	0.012039	0.000646848	1.60662	0.0243814	0.827544	0.0149402	12.3697	0.145853	13.9511	0.154896	4.65288	0.0894534
0.774237	0.0123313	0.000646333	1.53493	0.0244162	0.759121	0.0148715	11.924	0.145834	13.153	0.153165	4.656875	0.0911369
0.777014	0.0118646	0.000656527	1.52796	0.0247697	0.771271	0.0151391	11.8307	0.148036	13.2018	0.156379	4.554192	0.0918474
0.77979	0.0120154	0.000665698	1.48549	0.0251119	0.731582	0.0153546	11.6452	0.149755	12.8861	0.157532	4.718191	0.0953225
0.782567	0.0119613	0.00067215	1.47371	0.0253993	0.724222	0.0154573	11.4702	0.151666	12.6094	0.159019	4.50915	0.0950934
0.785344	0.0118887	0.000684315	1.46438	0.0258579	0.719517	0.0157382	11.4016	0.154397	12.5349	0.161888	4.487856	0.0968668
0.788121	0.0103928	0.00068597	1.39486	0.0257962	0.720725	0.015906	10.8628	0.154034	12.3523	0.164256	4.27198	0.0965965
0.790898	0.00661841	0.000574678	0.886512	0.0215009	0.457561	0.0134388	7.140834	0.127735	8.239	0.137206	3.142153	0.0847321
0.793675	0.00162041	0.000318173	0.178338	0.0116411	0.081073	0.00770186	1.87205	0.0669736	2.23582	0.0731915	1.39566	0.0578265
0.796451	0.000296773	0.00022888	0.026262	0.00796697	0.00973069	0.00591185	0.7396791	0.0431473	1.05632	0.0515618	1.01869	0.050635
#0.799228	1.12748e-05	0.000235254	0.00249285	0.00795016	0.00156521	0.00627589	0.655468	0.0416752	1.081089	0.053522	1.15088	0.0552224
#0.802005	2.06211e-05	0.000231859	0.0186906	0.00794536	0.0141624	0.00609499	0.6547332	0.0428014	1.03752	0.0538797	0.9410754	0.0513146
#0.804782	2.40706e-05	0.000242855	0.0419582	0.00844194	0.0326368	0.00628269	0.7415256	0.0468691	1.14427	0.0582223	0.8206549	0.0493065
#0.807559	0.000138972	0.000248495	0.011429	0.00852002	0.00386179	0.00652849	0.6534544	0.0453445	0.9995082	0.0560803	1.03182	0.0569796
0.810336	0.000327705	0.000260437	0.0463729	0.00920792	0.0246373	0.00660205	0.782608	0.0512409	1.07591	0.0600807	0.84851	0.0533551
0.813112	0.000502024	0.000265131	0.0378277	0.00942387	0.011185	0.00667618	0.751034	0.0519348	0.9591451	0.0586909	0.8933553	0.056642
0.815889	0.000457818	0.00027583	0.0286338	0.00972137	0.00551195	0.00701963	0.7254193	0.0529374	0.9523218	0.060654	0.9588185	0.0608605
#0.818666	-3.49183e-05	0.000278656	0.0002727	0.00940252	0.00154398	0.00744537	0.5811889	0.0492683	0.9674296	0.0635648	1.02642	0.0654743
0.821443	0.000458458	0.000288502	0.000527265	0.0100177	-0.016987	0.00747308	0.6053254	0.052471	0.7926073	0.0600417	1.07287	0.0698547
#0.82422	2.90587e-05	0.000299439	-0.000925316	0.0101403	-0.00184333	0.00797108	0.5645147	0.0530603	0.9104769	0.0673852	1.00748	0.0708842
#0.826997	7.99486e-05	0.000325093	0.0250432	0.0112248	0.0169894	0.00847489	0.6757599	0.061063	1.03567	0.0755955	0.902699	0.070576
#0.829773	0.000324625	0.000352026	0.034345	0.012355	0.0151364	0.00900437	0.744225	0.0677948	1.03348	0.0798905	0.9241141	0.0755454
0.83255	0.000691474	0.000367907	0.0597527	0.0133919	0.021523	0.00897187	0.8193247	0.0757617	0.951555	0.0816472	0.7520896	0.0725863
0.835327	0.000991881	0.000395603	0.0407359	0.0144387	-0.00509039	0.00961031	0.7842303	0.0797013	0.796664	0.0803311	0.924339	0.0865287
0.838104	0.000969894	0.000434794	0.0524781	0.0159329	0.00513384	0.0105007	0.8284612	0.0890747	0.861901	0.0908541	0.8644547	0.0909888
0.840881	0.0010175	0.00051468	0.0210757	0.0183576	-0.021784	0.0129023	0.8231598	0.0982415	0.9044996	0.10298	1.25734	0.121417
#0.843657	-0.000236323	0.000530181	0.0107391	0.0178163	0.0175609	0.0142247	0.6002633	0.0951472	1.06827	0.126931	0.931124	0.118503
0.846434	0.000742691	0.00061199	0.0131495	0.0218155	-0.0176869	0.0153535	0.643892	0.116654	0.7088916	0.122401	0.9899984	0.14465
#0.849211	0.000645103	0.000839101	0.0467051	0.0301491	0.0128506	0.0208332	0.797715	0.167746	0.9622608	0.184237	0.875357	0.175722
#0.851988	2.17431e-05	0.00154648	0.0801598	0.0545677	0.0632721	0.0393	0.93403	0.313163	1.41695	0.38571	0.7259486	0.276078