File: data/monolayers/nanoparticles/Ol_CoFe_C/vsm/Backup/rescale/DD67_300K_LangevinSAXSscaled.xye
#Executed at: 2018-11-13 00:54:13.4953
#Loaded File	 = ../rawdata/DD172_6_HYST_300K.DAT
#Rescale Factor	 = 0.0244316
#[[Data]]
#B/T	M/kAm-1	sM/kAm-1	M_raw/memu	sM_raw/memu
1.2179e-05	-0.317632	0.0107017	-13.0009	0.438027
0.0413633	6.27278	0.0194574	256.748	0.796401
0.0892892	12.4085	0.0186636	507.887	0.763909
0.133334	16.7115	0.0142341	684.009	0.582607
0.181256	20.3354	0.0153545	832.337	0.628466
0.227556	23.376	0.0145708	956.791	0.596392
0.273702	25.9318	0.011636	1061.4	0.476267
0.322269	28.4913	0.0139076	1166.16	0.569244
0.369315	30.7213	0.0141831	1257.44	0.580522
0.417982	32.7824	0.0118084	1341.8	0.483325
0.465698	34.774	0.0154771	1423.32	0.633485
0.513997	36.7079	0.0123814	1502.47	0.506778
0.560954	38.3671	0.0151426	1570.38	0.619793
0.607782	40.0479	0.0135162	1639.18	0.553224
0.654138	41.6712	0.0142742	1705.62	0.584252
0.702214	43.2052	0.0177633	1768.41	0.727062
0.747929	44.6261	0.0180906	1826.57	0.740459
0.795662	46.0427	0.0140885	1884.55	0.576651
0.844007	47.506	0.0202747	1944.44	0.829852
0.88914	48.7669	0.0184429	1996.05	0.754876
0.934571	49.9682	0.0179837	2045.22	0.736081
0.980002	51.173	0.0136891	2094.54	0.560303
1.03184	52.4941	0.0181302	2148.61	0.742077
1.08035	53.7281	0.0237315	2199.12	0.971342
1.12818	54.7881	0.0227332	2242.51	0.93048
1.17664	55.9641	0.0246135	2290.64	1.00744
1.22748	57.0817	0.023844	2336.38	0.975949
1.27623	58.2023	0.0268232	2382.25	1.09789
1.32391	59.2174	0.0287242	2423.8	1.1757
1.37533	60.3046	0.0233186	2468.3	0.954442
1.42528	61.3199	0.0278762	2509.86	1.14099
1.47277	62.2761	0.0248209	2548.99	1.01593
1.5147	63.1012	0.0273453	2582.77	1.11926
1.56497	63.9871	0.0281885	2619.03	1.15377
1.61267	64.9006	0.027676	2656.41	1.13279
1.65904	65.7309	0.0232871	2690.4	0.953153
1.70651	66.5581	0.0198924	2724.26	0.814208
1.75567	67.4217	0.0296237	2759.6	1.21251
1.80093	68.191	0.0325318	2791.09	1.33154
1.84757	68.9958	0.029424	2824.03	1.20434
1.89289	69.7181	0.0348301	2853.6	1.42561
1.94035	70.463	0.0238914	2884.08	0.977887
1.9891	71.2386	0.0337203	2915.83	1.38019
2.03818	71.9861	0.0312795	2946.43	1.28029
2.08604	72.7296	0.0329224	2976.86	1.34753
2.12461	73.3329	0.0403362	3001.55	1.65098
2.17059	74.0287	0.0314696	3030.03	1.28807
2.21929	74.7252	0.0302255	3058.54	1.23714
2.26946	75.4427	0.0379132	3087.91	1.5518
2.31546	76.0594	0.0391836	3113.15	1.60381
2.36655	76.7885	0.0295691	3142.99	1.21028
2.41413	77.4283	0.03423	3169.18	1.40105
2.46456	78.1309	0.039899	3197.94	1.63309
2.51481	78.7733	0.047566	3224.23	1.9469
2.56052	79.3639	0.0438309	3248.4	1.79402
2.61083	79.9914	0.0281282	3274.09	1.1513
2.66126	80.6351	0.0408671	3300.44	1.67271
2.70987	81.2531	0.0380934	3325.73	1.55918
2.75899	81.8472	0.0398766	3350.05	1.63217
2.80769	82.4747	0.0349489	3375.73	1.43047
2.85755	82.9967	0.0502192	3397.1	2.0555
2.91002	83.6664	0.034821	3424.51	1.42524
2.95863	84.237	0.0402105	3447.86	1.64584
3.00784	84.7896	0.0436254	3470.48	1.78561
3.05715	85.3483	0.0343504	3493.35	1.40598
3.10763	85.8743	0.0362701	3514.88	1.48456
3.15644	86.4637	0.0607777	3539	2.48766
3.20427	86.9577	0.0459702	3559.22	1.88158
3.25148	87.5082	0.0354904	3581.76	1.45264
3.29721	87.9394	0.0415149	3599.41	1.69923
3.34803	88.5491	0.0435081	3624.36	1.78081
3.39756	89.0143	0.0547423	3643.4	2.24063
3.44463	89.4978	0.04504	3663.19	1.84351
3.49434	89.9794	0.0445463	3682.9	1.8233
3.54532	90.4949	0.0651024	3704	2.66468
3.59314	90.9731	0.0472118	3723.57	1.9324
3.64527	91.499	0.0606214	3745.1	2.48126
3.69598	91.984	0.0608758	3764.95	2.49168
3.74633	92.5123	0.0557059	3786.58	2.28007
3.79506	92.9372	0.0572085	3803.97	2.34157
3.84677	93.4759	0.0313187	3826.02	1.28189
3.8925	93.882	0.0571608	3842.64	2.33962
3.94148	94.2551	0.0527042	3857.91	2.15721
3.99332	94.7479	0.045328	3878.08	1.8553
4.04144	95.2236	0.0569073	3897.55	2.32924
4.09379	95.6719	0.0533753	3915.9	2.18468
4.14363	96.1534	0.0524337	3935.61	2.14614
4.19499	96.6408	0.0370023	3955.56	1.51453
4.24731	97.0534	0.0726828	3972.44	2.97495
4.2983	97.4519	0.0631542	3988.76	2.58493
4.34711	97.9276	0.0640301	4008.23	2.62078
4.39723	98.2879	0.0584608	4022.97	2.39283
4.44646	98.754	0.0685711	4042.05	2.80665
4.49488	99.1293	0.0540912	4057.41	2.21398
4.54334	99.5396	0.0561079	4074.21	2.29653
4.59405	99.9485	0.0806915	4090.94	3.30274
4.64165	100.335	0.0653591	4106.76	2.67518
4.68862	100.689	0.069662	4121.26	2.8513
4.73647	101.127	0.0671647	4139.2	2.74909
4.78758	101.503	0.0373962	4154.56	1.53064
4.83603	101.895	0.0775869	4170.62	3.17567
4.88512	102.251	0.0662649	4185.17	2.71226
4.93314	102.659	0.0828029	4201.89	3.38917
4.97987	102.994	0.0592753	4215.61	2.42617
5.02945	103.344	0.0677201	4229.91	2.77182
5.08256	103.761	0.0625475	4247.01	2.5601
5.13226	104.121	0.0771101	4261.71	3.15616
5.18562	104.49	0.0923518	4276.84	3.78001
5.23457	104.919	0.0727514	4294.37	2.97775
5.28107	105.257	0.0655745	4308.24	2.684
5.32991	105.571	0.0884492	4321.06	3.62027
5.37876	105.913	0.052622	4335.07	2.15385
5.42861	106.298	0.0531272	4350.82	2.17452
5.48082	106.629	0.0728042	4364.37	2.97991
5.5304	107	0.0678313	4379.55	2.77637
5.57602	107.265	0.0635512	4390.42	2.60119
5.62336	107.647	0.0602047	4406.04	2.46421
5.67186	107.93	0.0782729	4417.62	3.20375
5.71919	108.308	0.0720936	4433.1	2.95083
5.76852	108.605	0.0738838	4445.27	3.0241
5.82255	108.971	0.0649082	4460.25	2.65673
5.87254	109.395	0.0695706	4477.58	2.84756
5.92335	109.658	0.0914234	4488.35	3.74201
5.97597	109.999	0.0882471	4502.31	3.612
6.02644	110.356	0.0735023	4516.91	3.00849
6.08114	110.701	0.08417	4531.03	3.44512
6.13524	111.06	0.0744835	4545.73	3.04865
6.18222	111.353	0.0712439	4557.74	2.91605
6.23394	111.666	0.0864803	4570.54	3.53968
6.28686	111.949	0.0842004	4582.14	3.44637
6.3392	112.321	0.0982367	4597.36	4.02088
6.39042	112.643	0.0703833	4610.54	2.88082
6.44004	112.925	0.0704782	4622.08	2.88471
6.48735	113.202	0.10952	4633.43	4.48271
6.5397	113.597	0.0786243	4649.59	3.21813
6.59018	113.815	0.0996227	4658.51	4.07761
6.64115	114.172	0.0786028	4673.11	3.21725
6.69025	114.439	0.086477	4684.06	3.53955
6.74335	114.745	0.0873204	4696.59	3.57407
6.79424	115.084	0.0825497	4710.43	3.3788
6.8448	115.373	0.0928311	4722.27	3.79963
6.8978	115.659	0.0856396	4733.99	3.50527
6.94578	115.948	0.0749461	4745.82	3.06758
6.99862	116.294	0.0865704	4759.97	3.54337
7.05257	116.54	0.0661141	4770.03	2.70608
7.10218	116.902	0.104318	4784.85	4.2698
7.15314	117.144	0.0959583	4794.77	3.92762
7.2039	117.459	0.086425	4807.67	3.53742
7.25549	117.653	0.0871566	4815.6	3.56736
7.30785	118.008	0.0748324	4830.13	3.06293
7.35877	118.34	0.100929	4843.7	4.13107
7.40827	118.544	0.103937	4852.06	4.2542
7.45802	118.802	0.108214	4862.62	4.42927
7.51088	119.15	0.10036	4876.88	4.1078
7.56306	119.349	0.0987846	4885.02	4.04331
7.61447	119.652	0.0926379	4897.44	3.79172
7.6626	119.958	0.110797	4909.96	4.53498
7.71265	120.175	0.103386	4918.81	4.23166
7.76442	120.481	0.118551	4931.35	4.85237
7.81324	120.734	0.108855	4941.72	4.45549
7.86286	120.966	0.0932862	4951.19	3.81825
7.91297	121.27	0.0879405	4963.66	3.59945
7.96256	121.485	0.102578	4972.46	4.19856
8.01159	121.755	0.0978548	4983.5	4.00525
8.06146	121.987	0.0685492	4992.99	2.80576
8.10986	122.261	0.102944	5004.22	4.21356
8.16026	122.527	0.0961358	5015.09	3.93489
8.2094	122.743	0.116479	5023.93	4.76754
8.25948	123.011	0.105982	5034.92	4.3379
8.31035	123.263	0.122711	5045.22	5.0226
8.36078	123.506	0.0907617	5055.18	3.71492
8.41025	123.711	0.117127	5063.55	4.79407
8.4565	123.966	0.109751	5074.01	4.49216
8.50478	124.162	0.112234	5082.01	4.5938
8.55465	124.395	0.114425	5091.56	4.68346
8.60032	124.649	0.121029	5101.93	4.95378
8.6483	124.898	0.0916067	5112.13	3.74951
8.69756	125.128	0.122469	5121.57	5.01274
8.7464	125.336	0.104482	5130.05	4.27648
8.79126	125.51	0.107825	5137.17	4.41332
8.84144	125.787	0.0872017	5148.54	3.56921
8.88893	125.96	0.113364	5155.61	4.64006
8.93506	126.223	0.118877	5166.39	4.8657
8.98367	126.482	0.111805	5176.96	4.57625
8.97666	126.45	0.0935367	5175.65	3.82851
8.92957	126.262	0.131099	5167.98	5.36595
8.88396	125.995	0.108267	5157.03	4.43144
8.83698	125.809	0.105283	5149.42	4.30927
8.78678	125.545	0.110814	5138.61	4.53569
8.74081	125.352	0.109106	5130.74	4.46575
8.69205	125.125	0.104485	5121.41	4.27663
8.64406	124.817	0.114698	5108.84	4.69467
8.59796	124.667	0.0999425	5102.68	4.0907
8.55347	124.436	0.10899	5093.24	4.46101
8.50524	124.175	0.105169	5082.54	4.30463
8.45912	123.968	0.0982026	5074.08	4.01948
8.41312	123.766	0.10616	5065.81	4.34518
8.36552	123.515	0.0989673	5055.54	4.05078
8.31407	123.254	0.12288	5044.84	5.02954
8.26567	123.025	0.0847565	5035.49	3.46913
8.21297	122.725	0.10488	5023.2	4.29279
8.16209	122.536	0.106742	5015.46	4.36901
8.11424	122.297	0.0965535	5005.66	3.95198
8.06604	122.061	0.0991592	4996.03	4.05864
8.01184	121.788	0.109942	4984.86	4.49997
7.96422	121.509	0.0822336	4973.42	3.36587
7.91384	121.26	0.0846521	4963.23	3.46485
7.86469	121.003	0.0892315	4952.71	3.65229
7.82052	120.783	0.103581	4943.72	4.23962
7.770325	120.457	0.0934229	4930.37	3.82385
7.71523	120.283	0.087161	4923.25	3.56755
7.67039	120.067	0.101285	4914.42	4.14564
7.6215	119.663	0.0998367	4897.88	4.08637
7.56885	119.414	0.0940249	4887.67	3.84849
7.51922	119.245	0.0950764	4880.77	3.89153
7.4715	118.929	0.0935592	4867.82	3.82943
7.42104	118.658	0.0959368	4856.73	3.92674
7.36981	118.357	0.100087	4844.39	4.0966
7.32381	118.115	0.075003	4834.53	3.06991
7.27448	117.816	0.0789677	4822.27	3.23219
7.22415	117.602	0.0820613	4813.52	3.35881
7.17463	117.262	0.0740633	4799.59	3.03145
7.12506	117.053	0.0835977	4791.06	3.4217
7.07367	116.746	0.0664605	4778.47	2.72026
7.02393	116.406	0.080607	4764.54	3.29929
6.97411	116.149	0.0748422	4754.05	3.06333
6.92439	115.834	0.0971204	4741.13	3.97519
6.87714	115.579	0.0891002	4730.69	3.64692
6.8273	115.266	0.0962113	4717.91	3.93798
6.7737	114.966	0.0793813	4705.61	3.24912
6.72648	114.698	0.0680154	4694.65	2.7839
6.67659	114.377	0.0741839	4681.5	3.03638
6.62814	114.128	0.0833566	4671.31	3.41183
6.58401	113.851	0.0958009	4659.99	3.92118
6.53018	113.562	0.078251	4648.16	3.20285
6.48033	113.191	0.102034	4632.95	4.17632
6.43062	112.928	0.0799279	4622.2	3.27149
6.37938	112.62	0.0799247	4609.6	3.27136
6.32868	112.302	0.0948332	4596.56	3.88157
6.27806	111.962	0.0852832	4582.68	3.49069
6.22725	111.712	0.0570263	4572.42	2.33412
6.17415	111.298	0.0760423	4555.5	3.11245
6.12459	110.992	0.0553802	4542.97	2.26674
6.07475	110.691	0.0809719	4530.65	3.31422
6.02335	110.299	0.0774927	4514.58	3.17181
5.97329	110.01	0.0690301	4502.76	2.82544
5.92179	109.662	0.0743615	4488.52	3.04365
5.86998	109.318	0.052859	4474.45	2.16355
5.82065	108.963	0.0662599	4459.9	2.71205
5.7685	108.685	0.0669717	4448.52	2.74119
5.71549	108.357	0.0642144	4435.11	2.62833
5.66816	107.96	0.0821009	4418.88	3.36043
5.61794	107.639	0.0710081	4405.71	2.9064
5.56786	107.274	0.0725462	4390.77	2.96935
5.51977	106.976	0.0762716	4378.6	3.12184
5.4714	106.583	0.0640085	4362.49	2.6199
5.42207	106.263	0.074356	4349.4	3.04343
5.37269	105.887	0.0790886	4334	3.23714
5.32293	105.56	0.0736932	4320.64	3.0163
5.27062	105.192	0.0639746	4305.58	2.61851
5.22231	104.807	0.0572263	4289.79	2.3423
5.17142	104.481	0.059527	4276.48	2.43647
5.1191	104.038	0.061856	4258.34	2.5318
5.07212	103.709	0.0744571	4244.87	3.04757
5.01905	103.313	0.0562487	4228.64	2.30229
4.96755	102.932	0.0773138	4213.04	3.1645
4.91622	102.551	0.0512048	4197.48	2.09584
4.86548	102.181	0.0520725	4182.33	2.13135
4.81325	101.764	0.0519962	4165.25	2.12823
4.76329	101.315	0.0589017	4146.87	2.41088
4.71456	100.963	0.0743278	4132.48	3.04227
4.66083	100.567	0.0633507	4116.24	2.59298
4.61286	100.088	0.0648187	4096.65	2.65306
4.56367	99.7191	0.0605166	4081.55	2.47698
4.5137	99.303	0.0600164	4064.52	2.4565
4.46644	98.9457	0.0467192	4049.9	1.91224
4.41618	98.5393	0.0563173	4033.27	2.3051
4.36795	98.09	0.0540272	4014.87	2.21136
4.32228	97.7276	0.0590436	4000.04	2.41669
4.27128	97.2785	0.0442861	3981.66	1.81265
4.22244	96.8707	0.0447191	3964.97	1.83037
4.17468	96.5026	0.0616959	3949.9	2.52525
4.12433	95.9517	0.0525698	3927.35	2.15171
4.07691	95.5799	0.0508755	3912.13	2.08236
4.03129	95.1954	0.0614086	3896.4	2.51349
3.98465	94.7811	0.0710875	3879.44	2.90965
3.93453	94.2674	0.0419209	3858.41	1.71584
3.88585	93.8597	0.0470559	3841.73	1.92602
3.83612	93.3902	0.051124	3822.51	2.09253
3.78205	92.8659	0.0501945	3801.05	2.05449
3.73397	92.4141	0.0580536	3782.56	2.37616
3.68484	91.9214	0.0375057	3762.39	1.53513
3.62877	91.356	0.0502102	3739.25	2.05513
3.57814	90.8943	0.0500297	3720.35	2.04774
3.52643	90.3879	0.049502	3699.62	2.02614
3.47621	89.8503	0.0524228	3677.62	2.14569
3.42673	89.3924	0.0459006	3658.88	1.87874
3.37606	88.8201	0.037686	3635.45	1.54251
3.3258	88.3197	0.0451919	3614.97	1.84973
3.27485	87.7787	0.0431703	3592.83	1.76698
3.22627	87.2359	0.0398432	3570.61	1.6308
3.17852	86.7385	0.043904	3550.25	1.79701
3.12706	86.1701	0.0461385	3526.99	1.88847
3.07817	85.6537	0.0501153	3505.85	2.05124
3.02482	85.0162	0.0406101	3479.76	1.66219
2.97563	84.4898	0.0450859	3458.21	1.84539
2.92604	83.9129	0.032482	3434.6	1.32951
2.8748	83.294	0.0415246	3409.27	1.69963
2.82431	82.6992	0.0338654	3384.92	1.38613
2.77613	82.1067	0.0398063	3360.67	1.62929
2.72552	81.4811	0.0453122	3335.06	1.85465
2.67653	80.907	0.0268594	3311.57	1.09937
2.627	80.2864	0.0355249	3286.16	1.45405
2.57577	79.6224	0.0315598	3258.99	1.29176
2.52607	79.0029	0.040868	3233.63	1.67275
2.47534	78.3194	0.0337954	3205.65	1.38326
2.42453	77.6067	0.0341345	3176.48	1.39714
2.37606	76.9794	0.0345426	3150.8	1.41385
2.32758	76.2865	0.0289194	3122.45	1.18369
2.27773	75.6128	0.0217587	3094.87	0.890594
2.22964	74.9146	0.0373758	3066.29	1.52981
2.1785	74.2049	0.0364403	3037.25	1.49152
2.1305	73.455	0.0322088	3006.55	1.31832
2.07982	72.7295	0.0320175	2976.86	1.31049
2.02858	71.9189	0.0313074	2943.68	1.28143
1.97754	71.1425	0.0224754	2911.9	0.919932
1.92802	70.3769	0.023791	2880.56	0.973779
1.87872	69.5811	0.0298709	2847.99	1.22263
1.82987	68.7796	0.033857	2815.19	1.38578
1.78162	67.9557	0.0316405	2781.46	1.29506
1.73653	67.2055	0.030236	2750.76	1.23758
1.68706	66.3057	0.0304435	2713.93	1.24607
1.63761	65.4206	0.0276609	2677.7	1.13217
1.59025	64.561	0.0336613	2642.51	1.37777
1.54079	63.6223	0.02337	2604.09	0.956546
1.49179	62.6624	0.0238762	2564.8	0.977265
1.44646	61.781	0.025316	2528.73	1.0362
1.39673	60.8493	0.0317578	2490.59	1.29986
1.34665	59.7738	0.0225218	2446.57	0.921827
1.29927	58.801	0.0252767	2406.75	1.03459
1.25242	57.7806	0.0249887	2364.99	1.0228
1.20634	56.7358	0.0224782	2322.22	0.920045
1.15962	55.6949	0.018936	2279.62	0.775061
1.10864	54.4577	0.0176655	2228.98	0.723056
1.05931	53.2722	0.0240192	2180.46	0.983116
1.01195	52.0765	0.0145182	2131.52	0.594238
0.962134	50.7917	0.0156795	2078.93	0.641769
0.912754	49.537	0.0163013	2027.58	0.667219
0.866612	48.2227	0.0155627	1973.78	0.63699
0.822247	46.9426	0.0159717	1921.39	0.653729
0.775779	45.6022	0.01739	1866.52	0.711784
0.726418	44.0906	0.0134981	1804.65	0.552482
0.681582	42.6827	0.0187411	1747.02	0.767083
0.631495	40.9958	0.0141172	1677.98	0.577825
0.582998	39.3622	0.015039	1611.12	0.615556
0.535921	37.6344	0.0134163	1540.4	0.549134
0.485103	35.6347	0.0149786	1458.55	0.613081
0.438942	33.8241	0.0144151	1384.44	0.590019
0.390226	31.7933	0.0124852	1301.31	0.511024
0.340741	29.5136	0.0138005	1208.01	0.564862
0.294989	27.1855	0.011228	1112.72	0.459568
0.250178	24.919	0.0138125	1019.95	0.565353
0.198836	21.7609	0.0117352	890.687	0.480329
0.150338	18.2468	0.0117086	746.853	0.47924
0.105091	14.3515	0.0152047	587.413	0.622335
0.060044	9.32244	0.0177093	381.572	0.724849
0.0151478	2.49682	0.0208131	102.196	0.851892
-0.0307029	-5.18588	0.0201887	-212.261	0.826336
-0.0752733	-11.304	0.016251	-462.679	0.665161
-0.121669	-16.0849	0.0153064	-658.364	0.626498
-0.167616	-19.629	0.0112584	-803.424	0.460813
-0.21343	-22.6031	0.0134568	-925.155	0.550792
-0.260946	-25.3634	0.0129989	-1038.14	0.532053
-0.307654	-27.8257	0.0148561	-1138.92	0.608067
-0.356159	-30.0946	0.0131712	-1231.79	0.539104
-0.399528	-32.1039	0.0138724	-1314.03	0.567806
-0.449567	-34.2034	0.0148706	-1399.96	0.608661
-0.500669	-36.1887	0.0126923	-1481.22	0.519503
-0.546164	-37.8704	0.0162613	-1550.06	0.665585
-0.593881	-39.6756	0.0140877	-1623.94	0.576619
-0.642346	-41.2978	0.0140738	-1690.34	0.576048
-0.688576	-42.8737	0.0141535	-1754.84	0.579309
-0.737179	-44.3604	0.0154519	-1815.69	0.632453
-0.783962	-45.8009	0.0146449	-1874.66	0.599423
-0.832148	-47.1819	0.0198406	-1931.18	0.812084
-0.882238	-48.5951	0.0183746	-1989.02	0.752082
-0.929171	-49.8951	0.0160722	-2042.23	0.657843
-0.974504	-51.0789	0.018753	-2090.68	0.76757
-1.0236	-52.3442	0.0199829	-2142.48	0.817911
-1.07158	-53.5051	0.0183415	-2189.99	0.750729
-1.12192	-54.7228	0.0241546	-2239.83	0.988661
-1.1714	-55.8868	0.0187233	-2287.48	0.766356
-1.22086	-57.0234	0.0186376	-2334	0.762846
-1.27007	-58.1135	0.0136839	-2378.62	0.560091
-1.31715	-59.0746	0.0207055	-2417.96	0.847488
-1.36331	-60.0625	0.025508	-2458.39	1.04406
-1.40952	-60.9733	0.0206033	-2495.67	0.843302
-1.45777	-61.9813	0.0180479	-2536.93	0.738711
-1.5031	-62.8748	0.0207234	-2573.5	0.848219
-1.55318	-63.8231	0.0174808	-2612.31	0.715497
-1.60217	-64.7474	0.0209522	-2650.14	0.857585
-1.65227	-65.6569	0.0138313	-2687.37	0.566121
-1.70136	-66.4868	0.0199473	-2721.34	0.816453
-1.75011	-67.3625	0.031903	-2757.18	1.30581
-1.80008	-68.1921	0.0230658	-2791.14	0.944094
-1.85141	-69.0387	0.0392403	-2825.79	1.60613
-1.9005	-69.8272	0.0287459	-2858.06	1.17658
-1.95298	-70.693	0.0287994	-2893.5	1.17878
-2.00343	-71.4687	0.018009	-2925.25	0.737118
-2.05331	-72.2478	0.0317282	-2957.14	1.29865
-2.10179	-72.9787	0.0215521	-2987.06	0.882138
-2.15297	-73.7299	0.0328624	-3017.8	1.34508
-2.20354	-74.4448	0.0222885	-3047.06	0.912279
-2.25421	-75.2407	0.026568	-3079.64	1.08744
-2.3023	-75.8842	0.0246065	-3105.98	1.00716
-2.34953	-76.5524	0.040079	-3133.33	1.64046
-2.4014	-77.2854	0.0392561	-3163.33	1.60677
-2.45356	-77.9267	0.0303438	-3189.58	1.24199
-2.50015	-78.5338	0.027161	-3214.43	1.11171
-2.54839	-79.2259	0.0270829	-3242.76	1.10852
-2.59921	-79.8554	0.0318025	-3268.52	1.30169
-2.64934	-80.4813	0.0434637	-3294.14	1.77899
-2.69934	-81.1193	0.022282	-3320.26	0.912015
-2.75144	-81.7508	0.0378547	-3346.1	1.54941
-2.80227	-82.3583	0.0341944	-3370.97	1.3996
-2.85163	-82.9595	0.0369321	-3395.57	1.51165
-2.90072	-83.5151	0.0319812	-3418.32	1.30901
-2.95169	-84.1182	0.042517	-3443	1.74024
-3.00003	-84.6534	0.0288872	-3464.91	1.18237
-3.04914	-85.2354	0.0389928	-3488.73	1.596
-3.10062	-85.8202	0.0504391	-3512.67	2.0645
-3.15173	-86.3535	0.0369455	-3534.49	1.5122
-3.20172	-86.9323	0.034496	-3558.18	1.41194
-3.25378	-87.4604	0.0531362	-3579.8	2.17489
-3.3024	-87.9941	0.0474256	-3601.65	1.94116
-3.35286	-88.5529	0.0338303	-3624.52	1.38469
-3.40745	-89.1019	0.0400709	-3646.98	1.64012
-3.45764	-89.5783	0.0368857	-3666.49	1.50975
-3.50886	-90.1049	0.0417569	-3688.04	1.70913
-3.56093	-90.6544	0.029979	-3710.53	1.22706
-3.61057	-91.1223	0.046139	-3729.68	1.88849
-3.66354	-91.646	0.0399956	-3751.12	1.63704
-3.71474	-92.1601	0.0457513	-3772.16	1.87262
-3.76964	-92.6804	0.043702	-3793.46	1.78874
-3.82208	-93.171	0.0398708	-3813.54	1.63193
-3.87305	-93.6421	0.0391319	-3832.82	1.60169
-3.92898	-94.1316	0.0392574	-3852.85	1.60683
-3.97807	-94.6127	0.0431569	-3872.55	1.76643
-4.02972	-95.0269	0.0533243	-3889.5	2.18259
-4.08004	-95.542	0.0371539	-3910.58	1.52073
-4.13239	-96.0219	0.0607632	-3930.23	2.48707
-4.18088	-96.4276	0.0545379	-3946.83	2.23227
-4.23375	-96.9071	0.0443473	-3966.46	1.81516
-4.28479	-97.3289	0.0418006	-3983.72	1.71092
-4.33667	-97.8036	0.0487364	-4003.15	1.99481
-4.38735	-98.1334	0.0562145	-4016.65	2.30089
-4.44022	-98.6206	0.0357046	-4036.59	1.46141
-4.49	-99.0724	0.0518832	-4055.08	2.12361
-4.54209	-99.473	0.0504299	-4071.48	2.06412
-4.58956	-99.8668	0.0474215	-4087.6	1.94098
-4.64001	-100.22	0.0404424	-4102.04	1.65533
-4.68872	-100.649	0.0609851	-4119.62	2.49615
-4.74286	-101.091	0.0629524	-4137.7	2.57667
-4.79404	-101.493	0.0544157	-4154.18	2.22726
-4.84526	-101.835	0.061553	-4168.15	2.5194
-4.89647	-102.278	0.0486874	-4186.29	1.9928
-4.95188	-102.706	0.0506335	-4203.79	2.07245
-5.0001	-103.019	0.0739109	-4216.64	3.02521
-5.05142	-103.446	0.0445659	-4234.09	1.8241
-5.1034	-103.878	0.0633029	-4251.76	2.59102
-5.15372	-104.194	0.0682652	-4264.72	2.79413
-5.19895	-104.564	0.0705859	-4279.84	2.88912
-5.25092	-104.947	0.0590766	-4295.53	2.41803
-5.30474	-105.268	0.0731351	-4308.68	2.99346
-5.35485	-105.705	0.0635091	-4326.57	2.59946
-5.40906	-106.084	0.047961	-4342.08	1.96307
-5.4624	-106.452	0.0579056	-4357.14	2.37011
-5.51102	-106.76	0.0610479	-4369.74	2.49872
-5.56623	-107.142	0.0718996	-4385.4	2.94289
-5.61869	-107.502	0.0570371	-4400.1	2.33456
-5.67067	-107.865	0.0711447	-4414.96	2.91199
-5.72125	-108.237	0.053053	-4430.2	2.17149
-5.77559	-108.598	0.062842	-4444.97	2.57215
-5.82481	-108.923	0.0730759	-4458.29	2.99103
-5.87757	-109.312	0.062112	-4474.19	2.54228
-5.93026	-109.659	0.0732425	-4488.4	2.99785
-5.98472	-110.019	0.0649158	-4503.15	2.65704
-6.03283	-110.267	0.0797677	-4513.27	3.26493
-6.08357	-110.624	0.0525109	-4527.91	2.1493
-6.13437	-110.9	0.0675638	-4539.18	2.76542
-6.18249	-111.274	0.0835894	-4554.49	3.42136
-6.23408	-111.564	0.0742397	-4566.35	3.03867
-6.28324	-111.894	0.0757487	-4579.86	3.10043
-6.33418	-112.246	0.0879702	-4594.28	3.60067
-6.38504	-112.441	0.0732499	-4602.26	2.99816
-6.43527	-112.855	0.0888452	-4619.21	3.63648
-6.48963	-113.202	0.0823031	-4633.43	3.36871
-6.54268	-113.472	0.079026	-4644.48	3.23458
-6.59339	-113.779	0.0739139	-4657.03	3.02533
-6.64646	-114.056	0.075151	-4668.39	3.07597
-6.69823	-114.416	0.0911673	-4683.11	3.73152
-6.75096	-114.757	0.0859993	-4697.07	3.52
-6.801425	-114.999	0.0888245	-4706.98	3.63563
-6.85301	-115.336	0.0815445	-4720.78	3.33766
-6.9015	-115.628	0.075072	-4732.72	3.07274
-6.95467	-115.923	0.0865387	-4744.81	3.54207
-7.00628	-116.186	0.0845617	-4755.57	3.46116
-7.05685	-116.493	0.0973107	-4768.12	3.98298
-7.10957	-116.816	0.0920123	-4781.32	3.76611
-7.16128	-117.095	0.0846061	-4792.75	3.46297
-7.21267	-117.365	0.0779716	-4803.8	3.19142
-7.26284	-117.67	0.0863787	-4816.28	3.53553
-7.31457	-117.879	0.0729891	-4824.85	2.98748
-7.3649	-118.24	0.0813013	-4839.63	3.3277
-7.41554	-118.529	0.0874507	-4851.45	3.5794
-7.469	-118.766	0.114905	-4861.14	4.70312
-7.51856	-119.028	0.0850563	-4871.89	3.4814
-7.56403	-119.235	0.102599	-4880.34	4.19943
-7.6154	-119.546	0.101018	-4893.09	4.13473
-7.6669	-119.849	0.106248	-4905.5	4.34877
-7.71785	-120.103	0.121564	-4915.88	4.97566
-7.7668	-120.313	0.0925953	-4924.49	3.78997
-7.81903	-120.682	0.0877536	-4939.59	3.5918
-7.87022	-120.878	0.100367	-4947.62	4.10806
-7.92029	-121.143	0.101223	-4958.47	4.14311
-7.97415	-121.413	0.105629	-4969.49	4.32346
-8.02664	-121.74	0.0782821	-4982.9	3.20413
-8.07628	-121.914	0.114595	-4989.98	4.69045
-8.12874	-122.224	0.0977129	-5002.68	3.99944
-8.18144	-122.514	0.0992115	-5014.55	4.06078
-8.23093	-122.68	0.10015	-5021.35	4.09919
-8.2835	-122.984	0.0934521	-5033.78	3.82504
-8.33297	-123.223	0.0994626	-5043.57	4.07106
-8.3828	-123.479	0.104804	-5054.07	4.28968
-8.436	-123.716	0.128132	-5063.76	5.24449
-8.48327	-123.97	0.0928471	-5074.14	3.80028
-8.53037	-124.221	0.114404	-5084.42	4.68259
-8.58185	-124.437	0.108222	-5093.27	4.42959
-8.6309	-124.658	0.104843	-5102.31	4.29127
-8.67563	-124.872	0.121687	-5111.09	4.98073
-8.72645	-125.2	0.0738808	-5124.49	3.02398
-8.77669	-125.336	0.108485	-5130.08	4.44034
-8.82298	-125.579	0.122876	-5140.03	5.02936
-8.8761	-125.879	0.0837638	-5152.31	3.4285
-8.92454	-126.089	0.119142	-5160.88	4.87654
-8.97167	-126.3	0.0992741	-5169.53	4.06334
-8.98067	-126.326	0.119432	-5170.6	4.88843
-8.93292	-126.121	0.0904083	-5162.18	3.70046
-8.883	-125.846	0.104825	-5150.94	4.29055
-8.83163	-125.704	0.110053	-5145.14	4.50453
-8.78095	-125.383	0.0924135	-5132.01	3.78253
-8.7321	-125.229	0.122092	-5125.68	4.99727
-8.68279	-124.934	0.117829	-5113.62	4.8228
-8.63295	-124.735	0.11331	-5105.48	4.63784
-8.58698	-124.414	0.0983135	-5092.32	4.02402
-8.53703	-124.311	0.102897	-5088.11	4.21163
-8.48829	-123.951	0.108435	-5073.38	4.4383
-8.4398	-123.772	0.10617	-5066.05	4.3456
-8.39106	-123.488	0.10896	-5054.41	4.4598
-8.33838	-123.234	0.0972141	-5044.03	3.97903
-8.287	-123.028	0.106933	-5035.61	4.37682
-8.23155	-122.775	0.0905751	-5025.24	3.70729
-8.17959	-122.516	0.102604	-5014.66	4.19962
-8.12538	-122.192	0.0829056	-5001.36	3.39337
-8.07278	-121.93	0.0963165	-4990.65	3.94228
-8.02004	-121.663	0.0870284	-4979.74	3.56212
-7.96528	-121.371	0.0928191	-4967.78	3.79913
-7.91434	-121.147	0.0980575	-4958.62	4.01354
-7.8616	-120.843	0.10313	-4946.16	4.22116
-7.81141	-120.619	0.0930973	-4936.99	3.81052
-7.75724	-120.347	0.0971152	-4925.88	3.97497
-7.70359	-120.102	0.0910041	-4915.83	3.72484
-7.65351	-119.784	0.0871688	-4902.81	3.56786
-7.6023	-119.517	0.0843852	-4891.89	3.45393
-7.55029	-119.226	0.0795731	-4880	3.25697
-7.49859	-118.973	0.0973317	-4869.63	3.98384
-7.44586	-118.694	0.0919528	-4858.22	3.76367
-7.39728	-118.36	0.110141	-4844.55	4.50811
-7.34269	-118.082	0.0930355	-4833.17	3.80799
-7.28459	-117.741	0.0856592	-4819.21	3.50608
-7.23364	-117.539	0.0835743	-4810.91	3.42074
-7.18165	-117.237	0.0944136	-4798.59	3.8644
-7.12964	-116.915	0.10767	-4785.39	4.40699
-7.07572	-116.609	0.0913947	-4772.87	3.74083
-7.02426	-116.36	0.0952874	-4762.65	3.90016
-6.97167	-116.06	0.109616	-4750.41	4.48664
-6.91732	-115.73	0.0885621	-4736.87	3.62489
-6.865	-115.399	0.0663823	-4723.33	2.71706
-6.81525	-115.117	0.0793118	-4711.81	3.24627
-6.76371	-114.846	0.0874428	-4700.72	3.57908
-6.70883	-114.51	0.0745621	-4686.97	3.05186
-6.65634	-114.214	0.0784067	-4674.84	3.20923
-6.60199	-113.823	0.078921	-4658.85	3.23028
-6.55019	-113.554	0.080228	-4647.8	3.28378
-6.4991	-113.239	0.0742852	-4634.95	3.04053
-6.4455	-112.946	0.0808433	-4622.94	3.30896
-6.39465	-112.6	0.0804181	-4608.78	3.29155
-6.34258	-112.286	0.0970119	-4595.9	3.97075
-6.29015	-111.99	0.0614246	-4583.81	2.51414
-6.2377	-111.632	0.086554	-4569.14	3.5427
-6.18784	-111.321	0.0835578	-4556.43	3.42006
-6.1365	-110.974	0.0886385	-4542.23	3.62802
-6.08629	-110.664	0.0637593	-4529.55	2.6097
-6.03621	-110.3	0.0550087	-4514.63	2.25154
-5.98648	-109.996	0.0570478	-4502.19	2.33499
-5.93514	-109.686	0.0696887	-4489.48	2.85239
-5.8838	-109.309	0.0746312	-4474.05	3.0547
-5.82822	-108.967	0.0574656	-4460.08	2.3521
-5.77759	-108.603	0.0774535	-4445.18	3.17021
-5.72691	-108.298	0.0637724	-4432.68	2.61024
-5.67182	-107.934	0.0900585	-4417.8	3.68614
-5.62005	-107.471	0.0604992	-4398.83	2.47626
-5.56785	-107.155	0.059476	-4385.9	2.43438
-5.5145	-106.831	0.0870902	-4372.66	3.56465
-5.46403	-106.5	0.0703513	-4359.12	2.87951
-5.41009	-106.059	0.06748	-4341.06	2.76199
-5.35822	-105.734	0.0694923	-4327.76	2.84436
-5.30776	-105.399	0.072616	-4314.04	2.97221
-5.25839	-105.004	0.0554226	-4297.85	2.26848
-5.20795	-104.656	0.03978	-4283.63	1.62822
-5.15736	-104.28	0.0592305	-4268.23	2.42434
-5.10451	-103.872	0.0657673	-4251.53	2.69189
-5.05394	-103.496	0.0620454	-4236.13	2.53955
-5.00187	-103.15	0.0669169	-4222	2.73894
-4.95074	-102.705	0.0569926	-4203.78	2.33274
-4.897	-102.279	0.0692215	-4186.33	2.83327
-4.84551	-101.895	0.06354	-4170.6	2.60072
-4.7938	-101.51	0.0532668	-4154.84	2.18024
-4.74112	-101.094	0.0546001	-4137.84	2.23481
-4.68865	-100.657	0.0713656	-4119.93	2.92103
-4.63529	-100.228	0.064194	-4102.39	2.62749
-4.57906	-99.7789	0.0573235	-4084	2.34628
-4.52789	-99.3557	0.0597523	-4066.68	2.44569
-4.47855	-98.9688	0.069381	-4050.84	2.8398
-4.42346	-98.5119	0.0628544	-4032.14	2.57266
-4.3734	-98.0886	0.0701082	-4014.82	2.86957
-4.32044	-97.6647	0.0495725	-3997.47	2.02903
-4.26883	-97.1921	0.0626717	-3978.12	2.56518
-4.21825	-96.752	0.0519401	-3960.11	2.12594
-4.16642	-96.2607	0.0495514	-3940	2.02816
-4.11583	-95.9192	0.0651916	-3926.02	2.66833
-4.06388	-95.3919	0.0401672	-3904.44	1.64406
-4.01137	-94.9042	0.0512002	-3884.48	2.09565
-3.95875	-94.4329	0.0404565	-3865.19	1.65591
-3.91038	-94.0248	0.0550276	-3848.48	2.25231
-3.85972	-93.5039	0.0437983	-3827.16	1.79269
-3.80786	-93.0347	0.0550468	-3807.96	2.25309
-3.75751	-92.5615	0.0508316	-3788.59	2.08056
-3.70727	-92.0743	0.0561623	-3768.65	2.29875
-3.65394	-91.5535	0.0400769	-3747.33	1.64037
-3.60548	-91.1039	0.0406909	-3728.93	1.6655
-3.55575	-90.537	0.0596394	-3705.73	2.44107
-3.5024	-90.055	0.0506919	-3686	2.07485
-3.45084	-89.5342	0.0517055	-3664.68	2.11633
-3.40034	-89.0108	0.0551929	-3643.26	2.25907
-3.34775	-88.4653	0.0374171	-3620.93	1.5315
-3.29497	-87.9199	0.0358992	-3598.61	1.46937
-3.2436	-87.3838	0.0421733	-3576.67	1.72618
-3.19363	-86.8233	0.0511415	-3553.72	2.09325
-3.14316	-86.2884	0.0436511	-3531.83	1.78666
-3.08931	-85.7148	0.0489962	-3508.35	2.00544
-3.03981	-85.1559	0.0355643	-3485.47	1.45567
-2.9896	-84.5953	0.0446407	-3462.53	1.82717
-2.93653	-83.964	0.0352715	-3436.69	1.44368
-2.88217	-83.3519	0.0435959	-3411.64	1.7844
-2.83147	-82.7133	0.0430277	-3385.5	1.76115
-2.7789	-82.0664	0.0377156	-3359.02	1.54372
-2.72652	-81.5013	0.0412995	-3335.89	1.69041
-2.67788	-80.864	0.0348641	-3309.81	1.42701
-2.62677	-80.1973	0.0370471	-3282.52	1.51636
-2.57655	-79.5841	0.0441774	-3257.42	1.8082
-2.5296	-78.9974	0.0310964	-3233.41	1.27279
-2.47738	-78.3169	0.0402178	-3205.55	1.64613
-2.42406	-77.5849	0.0336721	-3175.59	1.37822
-2.37744	-76.9524	0.0344708	-3149.7	1.41091
-2.3246	-76.1918	0.0306942	-3118.57	1.25633
-2.27138	-75.4923	0.0293214	-3089.94	1.20014
-2.21988	-74.7298	0.0265783	-3058.73	1.08786
-2.16992	-74.0339	0.0376869	-3030.25	1.54254
-2.12172	-73.3269	0.0280863	-3001.31	1.14959
-2.06824	-72.5101	0.0274477	-2967.88	1.12345
-2.01653	-71.7049	0.0297971	-2934.92	1.21961
-1.96645	-70.9609	0.0317746	-2904.47	1.30055
-1.91383	-70.1088	0.0329288	-2869.59	1.34779
-1.86138	-69.2458	0.0268292	-2834.26	1.09813
-1.81377	-68.4708	0.0277269	-2802.55	1.13488
-1.76488	-67.6034	0.0375362	-2767.04	1.53637
-1.71417	-66.7619	0.0240047	-2732.6	0.982523
-1.66321	-65.8753	0.0263697	-2696.31	1.07933
-1.61224	-64.9119	0.0201789	-2656.88	0.825932
-1.56103	-64.0091	0.0247943	-2619.93	1.01484
-1.51196	-63.0662	0.0210683	-2581.33	0.862336
-1.4601	-62.0231	0.0296223	-2538.64	1.21246
-1.40687	-60.9929	0.0257363	-2496.47	1.0534
-1.35679	-59.9579	0.0230485	-2454.11	0.943387
-1.30703	-58.895	0.014236	-2410.6	0.582686
-1.25528	-57.8002	0.0256965	-2365.79	1.05177
-1.20509	-56.6839	0.0259733	-2320.1	1.0631
-1.15536	-55.5153	0.0209895	-2272.27	0.85911
-1.10238	-54.3115	0.0141658	-2223	0.579814
-1.0529	-53.0916	0.0138282	-2173.07	0.565996
-1.00496	-51.9157	0.0237802	-2124.93	0.973336
-0.95311	-50.5585	0.0194527	-2069.38	0.79621
-0.906501	-49.2798	0.0180072	-2017.05	0.737046
-0.858821	-47.9726	0.0173404	-1963.54	0.70975
-0.807842	-46.5345	0.0139358	-1904.68	0.570401
-0.759248	-45.1189	0.0173906	-1846.74	0.711805
-0.707799	-43.4791	0.0170412	-1779.62	0.697504
-0.660187	-41.9555	0.0152291	-1717.26	0.623334
-0.612202	-40.3477	0.0117401	-1651.45	0.480527
-0.561603	-38.4834	0.0157779	-1575.15	0.645797
-0.512506	-36.7492	0.0131157	-1504.16	0.53683
-0.465263	-34.8801	0.0141271	-1427.66	0.578228
-0.415417	-32.8177	0.0105785	-1343.25	0.432982
-0.367429	-30.7333	0.0116038	-1257.93	0.474949
-0.317322	-28.3901	0.0141736	-1162.02	0.580134
-0.272197	-26.0853	0.0113661	-1067.69	0.465219
-0.222741	-23.2587	0.0132693	-951.992	0.543119
-0.174616	-20.0265	0.0139572	-819.696	0.571274
-0.125995	-16.3264	0.0163045	-668.249	0.667352
-0.0792686	-11.6226	0.0202698	-475.721	0.829652
-0.0319091	-5.21719	0.0213544	-213.542	0.874048
0.0145698	2.45131	0.0201169	100.333	0.823394
0.0620602	9.59448	0.0177584	392.707	0.726863
0.111421	15.0289	0.0155673	615.139	0.637179
0.156932	18.7874	0.0120702	768.98	0.494039
0.207242	22.2044	0.013388	908.838	0.547978
0.254419	25.0004	0.0132197	1023.28	0.541091
0.298398	27.3655	0.0131075	1120.08	0.536497
0.348089	29.8024	0.0132933	1219.83	0.544101
0.397101	31.9476	0.0146908	1307.63	0.601303
0.444888	34.0507	0.0135316	1393.71	0.553857
0.492514	35.9309	0.014646	1470.67	0.599468
0.54176	37.8191	0.0136994	1547.96	0.560722
0.591981	39.5367	0.0145267	1618.26	0.594586
0.63794	41.1567	0.0148039	1684.56	0.605933
0.688668	42.8268	0.0144809	1752.92	0.592711
0.738644	44.3791	0.0157033	1816.46	0.642744
0.789392	45.9717	0.0151208	1881.65	0.618902
0.837582	47.3452	0.0219632	1937.86	0.898967
0.886454	48.6767	0.018457	1992.36	0.755456
0.934739	50.0287	0.0205435	2047.7	0.840855
0.985112	51.3612	0.017277	2102.24	0.707158
1.03567	52.6127	0.018848	2153.46	0.771459
1.08678	53.8402	0.0265018	2203.71	1.08473
1.13932	55.1015	0.0209454	2255.33	0.857307
1.18598	56.187	0.0225452	2299.76	0.922787
1.23718	57.3581	0.0218197	2347.7	0.893093
1.28793	58.44	0.0149859	2391.98	0.613379
1.33803	59.4982	0.0196206	2435.29	0.803082
1.38449	60.4978	0.0284089	2476.21	1.16279
1.43403	61.4838	0.0256097	2516.56	1.04822
1.48408	62.4899	0.0207925	2557.75	0.851048
1.53383	63.4309	0.0290505	2596.26	1.18905
1.58647	64.4303	0.0213503	2637.17	0.87388
1.63913	65.3804	0.0283784	2676.06	1.16154
1.68732	66.2388	0.0360832	2711.19	1.47691
1.7418	67.17	0.0318345	2749.3	1.303
1.79314	68.0673	0.0275743	2786.03	1.12863
1.84238	68.8671	0.0286892	2818.77	1.17426
1.89537	69.7558	0.0281954	2855.14	1.15405
1.94769	70.5696	0.0365836	2888.45	1.49738
1.99708	71.3776	0.0329629	2921.52	1.34919
2.04759	72.1527	0.0253937	2953.25	1.03938
2.09922	72.9111	0.0292062	2984.29	1.19542
2.15031	73.6996	0.0252964	3016.56	1.0354
2.2024	74.4661	0.0252868	3047.94	1.035
2.2513	75.1722	0.0421055	3076.84	1.7234
2.30166	75.8601	0.0373173	3104.99	1.52742
2.35525	76.6334	0.0397171	3136.64	1.62564
2.40532	77.2822	0.0399014	3163.2	1.63319
2.45669	77.9717	0.0455856	3191.42	1.86584
2.51241	78.7248	0.0400933	3222.25	1.64104
2.5645	79.3931	0.0380551	3249.6	1.55761
2.61558	80.0597	0.0390202	3276.89	1.59712
2.66843	80.6853	0.0434553	3302.49	1.77865
2.71797	81.3411	0.0420992	3329.33	1.72314
2.77195	81.9785	0.0388439	3355.42	1.5899
2.82117	82.5524	0.0424199	3378.91	1.73627
2.87315	83.1824	0.0347502	3404.7	1.42234
2.9281	83.8271	0.0389551	3431.09	1.59445
2.97545	84.3978	0.0459233	3454.45	1.87966
3.02577	84.9586	0.0434135	3477.4	1.77694
3.07838	85.5396	0.0414742	3501.18	1.69756
3.12827	86.1109	0.0396036	3524.56	1.621
3.18084	86.6809	0.042869	3547.9	1.75465
3.23119	87.2101	0.043559	3569.56	1.78289
3.28154	87.7319	0.0395521	3590.91	1.61889
3.3329	88.3	0.0347672	3614.16	1.42304
3.38457	88.8366	0.0482055	3636.13	1.97308
3.43757	89.351	0.0536461	3657.18	2.19576
3.4883	89.8642	0.0585192	3678.19	2.39522
3.54049	90.4032	0.0443068	3700.25	1.8135
3.59265	90.9524	0.0436956	3722.73	1.78848
3.64487	91.443	0.0400177	3742.81	1.63795
3.69947	91.9492	0.0477829	3763.53	1.95578
3.75091	92.4786	0.0436447	3785.2	1.7864
3.79987	92.9128	0.0638805	3802.97	2.61466
3.84819	93.4137	0.0582708	3823.47	2.38505
3.89855	93.8701	0.0523566	3842.15	2.14298
3.94557	94.2813	0.0644085	3858.98	2.63627
3.99641	94.78	0.0526982	3879.39	2.15697
4.04504	95.1868	0.0562791	3896.05	2.30353
4.09236	95.6238	0.0544714	3913.93	2.22954
4.14546	96.0912	0.0600865	3933.06	2.45937
4.19673	96.5159	0.0608796	3950.44	2.49184
4.24814	96.9811	0.0653762	3969.49	2.67588
4.29751	97.3985	0.0653441	3986.57	2.67457
4.35133	97.83	0.0625336	4004.23	2.55953
4.39867	98.2997	0.0535358	4023.46	2.19125
4.44966	98.6727	0.0576765	4038.72	2.36073
4.49745	99.0938	0.0572739	4055.96	2.34425
4.5453	99.4713	0.0527877	4071.41	2.16063
4.59727	99.8742	0.0803598	4087.9	3.28917
4.64834	100.354	0.0597499	4107.52	2.44559
4.69621	100.669	0.061908	4120.42	2.53392
4.74467	101.061	0.067066	4136.49	2.74505
4.80063	101.519	0.0709202	4155.22	2.9028
4.84683	101.861	0.0723049	4169.21	2.95948
4.89884	102.319	0.062523	4187.99	2.5591
4.94783	102.635	0.0661422	4200.88	2.70723
4.99395	103.093	0.0719083	4219.67	2.94324
5.04428	103.353	0.0740967	4230.3	3.03282
5.09774	103.754	0.0696923	4246.68	2.85254
5.14796	104.18	0.0658268	4264.16	2.69432
5.19619	104.543	0.0516678	4278.99	2.11479
5.24765	104.883	0.0520816	4292.92	2.13173
5.29611	105.204	0.0739648	4306.07	3.02742
5.34586	105.578	0.0716558	4321.38	2.93291
5.39471	105.972	0.0713622	4337.51	2.92089
5.44644	106.318	0.0509872	4351.67	2.08693
5.49828	106.673	0.0649858	4366.19	2.6599
5.54914	107.065	0.067779	4382.23	2.77423
5.59581	107.386	0.0740113	4395.36	3.02932
5.64468	107.698	0.0717537	4408.14	2.93692
5.69615	108.023	0.0573918	4421.43	2.34908
5.74414	108.393	0.0838422	4436.6	3.43171
5.79423	108.703	0.0790878	4449.27	3.2371
5.84499	109.039	0.0806682	4463.04	3.30179
5.89434	109.416	0.0696455	4478.45	2.85063
5.94727	109.71	0.0507436	4490.51	2.07696
6.00127	110.076	0.07889	4505.48	3.22901
6.05049	110.37	0.0862503	4517.52	3.53027
6.10248	110.766	0.0756481	4533.72	3.09632
6.15319	111.073	0.0895401	4546.26	3.66492
6.2028	111.396	0.0764197	4559.5	3.1279
6.25282	111.711	0.0776075	4572.4	3.17652
6.30644	112.008	0.0915964	4584.56	3.74909
6.35375	112.325	0.0744154	4597.52	3.04586
6.40475	112.645	0.0693945	4610.63	2.84035
6.45435	112.888	0.0876145	4620.56	3.58611
6.50531	113.28	0.0791924	4636.61	3.24139
6.55329	113.508	0.0869413	4645.96	3.55855
6.60326	113.854	0.0962127	4660.08	3.93804
6.65686	114.187	0.0872527	4673.74	3.5713
6.70622	114.432	0.089114	4683.74	3.64748
6.7592	114.756	0.0784848	4697.01	3.21243
6.80631	115.033	0.10388	4708.34	4.25185
6.85939	115.329	0.0885454	4720.47	3.62421
6.9116	115.683	0.100189	4734.98	4.10078
6.96073	115.969	0.0804896	4746.65	3.29448
7.01193	116.212	0.0753329	4756.63	3.08342
7.06591	116.516	0.0907964	4769.06	3.71634
7.11539	116.838	0.103999	4782.23	4.25675
7.16637	117.054	0.0979476	4791.08	4.00905
7.22111	117.417	0.0808557	4805.92	3.30947
7.26994	117.707	0.084364	4817.81	3.45306
7.3233	118.049	0.101521	4831.8	4.15531
7.37614	118.24	0.101886	4839.63	4.17025
7.42648	118.531	0.0776947	4851.54	3.18008
7.47831	118.858	0.0980441	4864.91	4.013
7.53069	119.134	0.100852	4876.23	4.12793
7.58282	119.429	0.0877689	4888.3	3.59243
7.63304	119.643	0.0935067	4897.04	3.82728
7.68628	119.975	0.0979339	4910.64	4.00848
7.73262	120.167	0.0965863	4918.5	3.95333
7.78173	120.428	0.0883082	4929.2	3.6145
7.83135	120.752	0.0871028	4942.44	3.56516
7.88157	120.912	0.103614	4949	4.24099
7.9345	121.254	0.103349	4962.99	4.23013
7.98598	121.456	0.117082	4971.26	4.79224
8.03602	121.736	0.10235	4982.71	4.18925
8.08578	122.017	0.106442	4994.21	4.35673
8.13647	122.262	0.105823	5004.25	4.33137
8.18608	122.511	0.103112	5014.44	4.22043
8.2382	122.833	0.117136	5027.62	4.79444
8.29031	122.976	0.109889	5033.49	4.49782
8.33766	123.276	0.112122	5045.73	4.5892
8.39061	123.599	0.101635	5058.96	4.15999
8.44186	123.702	0.119405	5063.19	4.8873
8.48961	124.066	0.108868	5078.08	4.45604
8.53809	124.197	0.100477	5083.44	4.11256
8.58566	124.511	0.10802	5096.29	4.42133
8.63162	124.692	0.0994815	5103.72	4.07183
8.67877	124.903	0.117837	5112.36	4.82315
8.72436	125.16	0.0940374	5122.86	3.849
8.77298	125.296	0.100434	5128.44	4.11082
8.82306	125.623	0.104916	5141.82	4.29428
8.87229	125.793	0.103352	5148.76	4.23025
8.91842	126.106	0.115381	5161.57	4.72262
8.96602	126.223	0.0989584	5166.36	4.05042
8.98916	126.398	0.117238	5173.54	4.79861
8.94395	126.184	0.102321	5164.76	4.18805
8.89763	125.909	0.119055	5153.53	4.87299
8.84687	125.665	0.112031	5143.53	4.5855
8.80032	125.489	0.0991539	5136.33	4.05842
8.75368	125.313	0.106948	5129.14	4.37744
8.70585	125.003	0.117464	5116.43	4.80787
8.65712	124.825	0.114559	5109.15	4.68897
8.60674	124.564	0.0986641	5098.45	4.03837
8.55879	124.358	0.11193	5090.02	4.58135
8.51255	124.132	0.112475	5080.78	4.60364
8.46653	123.953	0.104151	5073.47	4.26295
8.42166	123.752	0.101064	5065.23	4.13662
8.37004	123.457	0.109967	5053.17	4.50102
8.31869	123.144	0.0850828	5040.35	3.48248
8.26807	122.959	0.110653	5032.77	4.52907
8.22113	122.652	0.114395	5020.19	4.68226
8.16814	122.425	0.0982233	5010.91	4.02033
8.11515	122.255	0.102625	5003.94	4.20049
8.0653	121.893	0.0960332	4989.16	3.93069
8.01163	121.586	0.0994032	4976.59	4.06862
7.96239	121.394	0.0911301	4968.72	3.73
7.91242	121.137	0.0991882	4958.18	4.05983
7.8582	120.827	0.115981	4945.5	4.74716
7.8047	120.553	0.10643	4934.3	4.35623
7.75325	120.315	0.0967161	4924.54	3.95864
7.69648	120.012	0.104944	4912.14	4.29541
7.6429	119.75	0.109647	4901.45	4.48789
7.59181	119.493	0.0946215	4890.92	3.87291
7.54126	119.154	0.0843553	4877.02	3.45271
7.4863	118.88	0.0869788	4865.83	3.56009
7.4337	118.611	0.076835	4854.82	3.1449
7.38185	118.312	0.0792971	4842.56	3.24567
7.33188	118.05	0.0671747	4831.84	2.7495
7.27762	117.77	0.089939	4820.37	3.68125
7.22732	117.498	0.0873485	4809.26	3.57522
7.17583	117.208	0.0977401	4797.39	4.00055
7.12316	116.886	0.096042	4784.22	3.93105
7.06948	116.559	0.0844235	4770.81	3.4555
7.01801	116.329	0.0981492	4761.4	4.0173
6.9643	116.024	0.0938274	4748.91	3.84041
6.91392	115.693	0.0715086	4735.36	2.92688
6.86109	115.34	0.100448	4720.94	4.11139
6.80968	115.039	0.0973145	4708.61	3.98313
6.75775	114.813	0.0939984	4699.35	3.8474
6.70701	114.495	0.102818	4686.33	4.2084
6.65405	114.161	0.0816044	4672.66	3.34011
6.59992	113.777	0.0892704	4656.94	3.65388
6.54998	113.562	0.0726884	4648.16	2.97517
6.49949	113.189	0.0738003	4632.89	3.02068
6.44827	112.925	0.0804542	4622.09	3.29303
6.39432	112.627	0.0738265	4609.87	3.02176
6.34484	112.302	0.0876567	4596.56	3.58783
6.29225	111.914	0.0835341	4580.69	3.41909
6.23871	111.566	0.0776981	4566.47	3.18022
6.18584	111.327	0.0710995	4556.66	2.91014
6.13185	110.97	0.0701354	4542.05	2.87068
6.08089	110.622	0.0936978	4527.84	3.8351
6.02928	110.258	0.06697	4512.9	2.74112
5.97469	109.911	0.06525	4498.72	2.67072
5.92186	109.618	0.0829803	4486.74	3.39643
5.86977	109.249	0.0832189	4471.63	3.40619
5.81741	108.871	0.0680525	4456.15	2.78542
5.76191	108.53	0.0712103	4442.17	2.91467
5.70893	108.167	0.0684497	4427.32	2.80168
5.65935	107.854	0.0826131	4414.5	3.3814
5.60711	107.506	0.0824605	4400.28	3.37515
5.55032	107.075	0.0550104	4382.64	2.2516
5.50142	106.725	0.0723584	4368.3	2.96166
5.44546	106.339	0.0832177	4352.53	3.40614
5.39266	105.981	0.0658397	4337.85	2.69485
5.33941	105.604	0.0744176	4322.42	3.04595
5.28343	105.144	0.0761753	4303.61	3.1179
5.23648	104.87	0.0711771	4292.4	2.91332
5.18749	104.45	0.0580256	4275.19	2.37502
5.13449	104.111	0.0673373	4261.31	2.75615
5.07841	103.685	0.0614252	4243.88	2.51417
5.02731	103.35	0.0688157	4230.16	2.81666
4.97461	102.913	0.0607471	4212.28	2.48641
4.91812	102.491	0.0494253	4195.01	2.023
4.86816	102.061	0.0573193	4177.39	2.34611
4.81542	101.686	0.0657689	4162.07	2.69196
4.76034	101.288	0.0556264	4145.78	2.27682
4.7085	100.835	0.0696951	4127.22	2.85266
4.65314	100.378	0.0622725	4108.54	2.54884
4.59981	99.9651	0.0655562	4091.62	2.68325
4.54913	99.5355	0.0653126	4074.04	2.67328
4.49962	99.1685	0.052695	4059.02	2.15683
4.44461	98.7026	0.0511375	4039.95	2.09308
4.39304	98.2253	0.0538046	4020.41	2.20225
4.34078	97.8191	0.0655269	4003.79	2.68205
4.2878	97.3803	0.0626628	3985.83	2.56482
4.23629	96.9378	0.051062	3967.71	2.08999
4.18463	96.4335	0.0471147	3947.07	1.92843
4.13403	96.0247	0.0458744	3930.34	1.87766
4.08267	95.5691	0.0522149	3911.69	2.13718
4.03234	95.0981	0.0493435	3892.42	2.01966
3.98445	94.6929	0.0445234	3875.83	1.82237
3.93133	94.1824	0.0691523	3854.93	2.83044
3.88001	93.7002	0.0465423	3835.2	1.905
3.82794	93.2332	0.036246	3816.08	1.48357
3.77385	92.7312	0.0501034	3795.54	2.05076
3.72461	92.2569	0.0593299	3776.12	2.4284
3.67151	91.7378	0.0447241	3754.88	1.83058
3.61942	91.239	0.0562156	3734.46	2.30093
3.56869	90.7604	0.0376983	3714.87	1.54301
3.51784	90.23	0.0493259	3693.16	2.01894
3.46424	89.7086	0.0428431	3671.82	1.75359
3.41317	89.1438	0.0619598	3648.7	2.53605
3.36599	88.689	0.0511521	3630.09	2.09368
3.31404	88.0942	0.0437878	3605.74	1.79226
3.26229	87.5883	0.0406535	3585.03	1.66397
3.21006	87.0452	0.0371216	3562.81	1.51941
3.15383	86.4219	0.0425844	3537.29	1.743
3.10154	85.8206	0.0486311	3512.68	1.9905
3.0471	85.2294	0.0431181	3488.48	1.76485
2.99527	84.6624	0.0427178	3465.27	1.74846
2.94344	84.0686	0.0379506	3440.97	1.55334
2.89209	83.4772	0.0379372	3416.76	1.55279
2.8413	82.8473	0.0329098	3390.98	1.34701
2.79076	82.262	0.0414015	3367.02	1.69459
2.73568	81.6024	0.0334785	3340.03	1.37029
2.68624	80.9515	0.0290031	3313.39	1.18711
2.63604	80.3423	0.0302051	3288.45	1.23631
2.58119	79.6424	0.0317648	3259.8	1.30015
2.52701	78.9445	0.0425376	3231.24	1.74109
2.47705	78.3024	0.0422993	3204.96	1.73133
2.42382	77.5804	0.0303041	3175.4	1.24036
2.3731	76.9289	0.0339602	3148.74	1.39001
2.32301	76.2183	0.0355915	3119.65	1.45678
2.2739	75.531	0.0447277	3091.52	1.83073
2.22202	74.764	0.0358078	3060.13	1.46563
2.17355	74.0981	0.0311426	3032.87	1.27468
2.11783	73.2373	0.0279156	2997.64	1.1426
2.06812	72.535	0.0321415	2968.89	1.31557
2.01941	71.7674	0.0321912	2937.48	1.3176
1.96743	70.9309	0.03254	2903.24	1.33188
1.92046	70.1985	0.0341776	2873.26	1.39891
1.87139	69.4069	0.0337797	2840.86	1.38262
1.82141	68.6078	0.0258121	2808.15	1.0565
1.76882	67.7135	0.0225928	2771.55	0.924734
1.71858	66.8529	0.0208492	2736.33	0.853371
1.66353	65.8336	0.028257	2694.6	1.15657
1.61202	64.9209	0.0204358	2657.25	0.836446
1.56117	63.9852	0.0275581	2618.95	1.12797
1.50783	62.9738	0.0205643	2577.55	0.841709
1.45813	62.0101	0.0310875	2538.11	1.27243
1.40727	61.0117	0.0245973	2497.24	1.00678
1.35518	59.928	0.0260816	2452.89	1.06753
1.30433	58.8776	0.0200403	2409.89	0.82026
1.25545	57.7965	0.0235815	2365.64	0.965203
1.20749	56.7514	0.0202578	2322.86	0.829161
1.1563	55.563	0.0184192	2274.22	0.753907
1.10431	54.3825	0.0195861	2225.9	0.801669
1.05398	53.1072	0.0137176	2173.71	0.561467
1.00374	51.8665	0.0177126	2122.92	0.724987
0.955667	50.6232	0.017373	2072.03	0.711088
0.904059	49.2408	0.0177309	2015.45	0.725735
0.851774	47.7717	0.0158461	1955.32	0.648589
0.80381	46.4119	0.0156412	1899.66	0.640202
0.75096	44.8303	0.0165056	1834.93	0.675581
0.69976	43.2917	0.0140779	1771.95	0.576216
0.65151	41.64	0.0160123	1704.35	0.655391
0.60406	40.0503	0.0156448	1639.28	0.640351
0.554224	38.2541	0.0140826	1565.76	0.576408
0.505481	36.4919	0.0151661	1493.63	0.620754
0.457416	34.6181	0.014419	1416.94	0.590177
0.405262	32.4266	0.0155687	1327.24	0.637236
0.356507	30.1909	0.0108573	1235.73	0.444395
0.309803	28.0382	0.0127079	1147.62	0.520139
0.258206	25.3104	0.0135616	1035.97	0.555083
0.212232	22.528	0.0113067	922.084	0.462789
0.164625	19.5404	0.0122277	799.798	0.500487
0.116653	15.4841	0.0132338	633.772	0.541665
0.0688118	10.4853	0.0182873	429.17	0.748509
0.0201891	3.26529	0.0214307	133.65	0.877168
-3.19699e-05	-0.0966088	0.0150094	-3.95425	0.614344