File: data/monolayers/nanoparticles/Ol_CoFe_C/vsm/Backup/rescale/DD67_10K_LangevinSAXSscaled.xye
#Executed at: 2018-11-13 00:54:13.8946
#Loaded File	 = ../rawdata/DD172_6_HYST_10K.DAT
#Rescale Factor	 = 0.0244316
#[[Data]]
#B/T	M/kAm-1	sM/kAm-1	M_raw/memu	sM_raw/memu
-4.11042e-05	-0.520326	0.00918752	-21.2972	0.37605
0.0494127	0.17631	0.00847084	7.21646	0.346716
0.10247	0.92385	0.00830628	37.8136	0.33998
0.152477	1.63929	0.00854907	67.0969	0.349918
0.20254	2.34333	0.00795566	95.9138	0.325629
0.256674	3.14209	0.00796334	128.607	0.325944
0.310976	3.89427	0.00905902	159.394	0.37079
0.361735	4.66052	0.00967147	190.758	0.395858
0.410543	5.38924	0.00885999	220.584	0.362644
0.460387	6.12936	0.00840727	250.878	0.344114
0.511725	6.8715	0.00782822	281.254	0.320413
0.559265	7.59194	0.0089444	310.742	0.366099
0.611112	8.39695	0.00921163	343.692	0.377037
0.660217	9.17267	0.00863984	375.442	0.353633
0.713515	9.97917	0.00859254	408.453	0.351697
0.763753	10.7655	0.00926953	440.636	0.379407
0.813965	11.563	0.00803215	473.281	0.32876
0.866436	12.3985	0.00683383	507.478	0.279712
0.917232	13.2544	0.00967022	542.509	0.395807
0.969839	14.0861	0.00877047	576.552	0.35898
1.02144	14.96	0.00882033	612.321	0.36102
1.07101	15.8033	0.0093811	646.837	0.383973
1.12185	16.6546	0.0111913	681.682	0.458068
1.17395	17.561	0.00941186	718.781	0.385232
1.2242	18.4435	0.00866283	754.9	0.354574
1.27629	19.3887	0.0107349	793.589	0.439383
1.32503	20.2778	0.010737	829.982	0.43947
1.36962	21.1052	0.0110226	863.845	0.451162
1.41363	21.8913	0.00975914	896.024	0.399447
1.46194	22.834	0.0120465	934.606	0.49307
1.50916	23.6797	0.0113848	969.221	0.465987
1.55152	24.4976	0.0104292	1002.7	0.426871
1.60035	25.4739	0.0105625	1042.66	0.432331
1.64608	26.3803	0.00955039	1079.76	0.390902
1.69035	27.2574	0.0111098	1115.66	0.454731
1.73667	28.1683	0.0105969	1152.94	0.433736
1.78528	29.1948	0.0108506	1194.96	0.444122
1.82664	30.0334	0.0104323	1229.28	0.427001
1.8736	31.015	0.0101491	1269.46	0.415408
1.91931	32.0206	0.0132559	1310.62	0.54257
1.96316	32.9567	0.0125961	1348.94	0.515564
2.00661	33.9321	0.0121198	1388.86	0.496069
2.05184	34.9396	0.00942002	1430.09	0.385566
2.09723	35.9295	0.0134196	1470.61	0.549271
2.1423	36.933	0.0127839	1511.69	0.52325
2.18965	38.0323	0.0103259	1556.68	0.422643
2.23753	39.1158	0.0120011	1601.03	0.491211
2.28389	40.2433	0.0112968	1647.18	0.462384
2.32711	41.254	0.0134124	1688.55	0.548978
2.3727	42.3206	0.0128254	1732.2	0.524951
2.41868	43.4309	0.0133655	1777.65	0.547057
2.4659	44.5405	0.0117071	1823.07	0.479178
2.51387	45.74	0.0132274	1872.16	0.541405
2.55985	46.848	0.0113038	1917.51	0.462671
2.60708	48.0189	0.0148748	1965.44	0.608831
2.65291	49.2073	0.0143432	2014.08	0.587073
2.69918	50.3173	0.0159016	2059.51	0.650861
2.74456	51.4425	0.01165	2105.57	0.476842
2.79137	52.6348	0.0143172	2154.37	0.586012
2.83763	53.7889	0.0151541	2201.61	0.620266
2.88285	54.985	0.0178016	2250.57	0.728627
2.93341	56.2609	0.0124168	2302.79	0.508224
2.98066	57.4495	0.0137781	2351.44	0.563947
3.03324	58.8073	0.0149931	2407.01	0.613675
3.0821	60.0236	0.0179948	2456.8	0.736537
3.13422	61.3533	0.0176101	2511.22	0.720789
3.18374	62.6185	0.0191201	2563.01	0.782597
3.23228	63.8149	0.0160382	2611.98	0.656453
3.28127	65.0798	0.0196562	2663.75	0.80454
3.32901	66.2643	0.0160206	2712.23	0.655731
3.38109	67.6068	0.0116312	2767.18	0.476072
3.43315	68.8965	0.019395	2819.97	0.793849
3.48315	70.0883	0.0172028	2868.75	0.704121
3.53099	71.2726	0.0154571	2917.22	0.632666
3.57922	72.4785	0.0164097	2966.58	0.671657
3.62757	73.6286	0.0246672	3013.66	1.00964
3.67727	74.8336	0.017176	3062.98	0.703023
3.72861	76.0268	0.0274124	3111.82	1.122
3.77773	77.1744	0.0162361	3158.79	0.664552
3.82756	78.3436	0.0224342	3206.65	0.918244
3.88053	79.5545	0.0170585	3256.21	0.698211
3.93087	80.6947	0.0179242	3302.88	0.733646
3.98073	81.8358	0.0189288	3349.58	0.774767
4.02873	82.8924	0.0208364	3392.83	0.852845
4.07596	83.9728	0.0205922	3437.05	0.842849
4.12555	84.9923	0.0174867	3478.78	0.715738
4.17361	86.0881	0.0210255	3523.63	0.860583
4.22301	87.1487	0.0224156	3567.04	0.91748
4.27383	88.1924	0.0203299	3609.76	0.832114
4.32356	89.1947	0.021372	3650.79	0.874765
4.37229	90.1787	0.0225441	3691.06	0.92274
4.42225	91.1734	0.0151671	3731.77	0.620796
4.47274	92.1612	0.0209126	3772.21	0.855963
4.52216	93.139	0.0181955	3812.23	0.744749
4.57136	94.0919	0.0250416	3851.23	1.02497
4.6212	95.036	0.0205509	3889.87	0.841157
4.67166	95.9813	0.0180514	3928.56	0.738854
4.72151	96.8784	0.0190249	3965.28	0.7787
4.77135	97.8017	0.0153212	4003.07	0.627104
4.82021	98.6453	0.0270067	4037.6	1.1054
4.86855	99.5204	0.020331	4073.42	0.832157
4.92082	100.417	0.0211727	4110.1	0.866609
4.97013	101.201	0.0199132	4142.21	0.815057
5.02161	102.066	0.0184916	4177.6	0.756869
5.07108	102.935	0.0205509	4213.19	0.841159
5.11995	103.713	0.0243733	4245.04	0.99761
5.1699	104.472	0.0179357	4276.08	0.734116
5.22115	105.29	0.0183029	4309.57	0.749146
5.26995	106.109	0.0181201	4343.09	0.741664
5.31731	106.798	0.0198411	4371.3	0.812107
5.37007	107.588	0.0231857	4403.63	0.949003
5.41865	108.293	0.016997	4432.5	0.695695
5.46724	108.951	0.0209606	4459.4	0.857928
5.51683	109.684	0.0220394	4489.44	0.902086
5.5667	110.416	0.0206437	4519.38	0.844955
5.61716	111.089	0.0201007	4546.93	0.822734
5.66752	111.801	0.025948	4576.05	1.06207
5.71858	112.482	0.0240468	4603.96	0.98425
5.77043	113.174	0.0215795	4632.29	0.883258
5.81984	113.819	0.021968	4658.66	0.899163
5.86795	114.434	0.0210235	4683.86	0.860504
5.91704	115.057	0.0315945	4709.33	1.29318
5.96523	115.668	0.0227324	4734.35	0.930449
6.01508	116.314	0.0281518	4760.8	1.15227
6.06606	116.882	0.0254619	4784.04	1.04217
6.11266	117.478	0.0211012	4808.45	0.863681
6.16162	118.052	0.0211654	4831.94	0.866311
6.20975	118.59	0.0281684	4853.95	1.15295
6.26214	119.208	0.0187785	4879.24	0.768615
6.31138	119.8	0.0220259	4903.46	0.901533
6.36171	120.318	0.0259849	4924.66	1.06358
6.41242	120.865	0.0171974	4947.08	0.7039
6.46254	121.421	0.0230276	4969.83	0.94253
6.51223	121.998	0.0282022	4993.44	1.15433
6.56197	122.487	0.0153734	5013.46	0.629241
6.61295	123.012	0.0244007	5034.93	0.998732
6.66343	123.514	0.0190947	5055.51	0.781557
6.71468	124.078	0.0293963	5078.56	1.20321
6.76591	124.54	0.0197403	5097.47	0.807981
6.81698	125.073	0.0227139	5119.3	0.929691
6.86946	125.595	0.023155	5140.66	0.947747
6.91953	126.085	0.0228845	5160.74	0.936676
6.97128	126.55	0.0254847	5179.76	1.0431
7.02012	127.015	0.021374	5198.78	0.874847
7.07135	127.515	0.022789	5219.25	0.932767
7.11882	127.914	0.0210701	5235.57	0.862412
7.17105	128.42	0.0248076	5256.28	1.01539
7.22256	128.853	0.0308968	5274.03	1.26462
7.27251	129.317	0.0186253	5293	0.762342
7.32559	129.771	0.0313528	5311.58	1.28329
7.37642	130.198	0.0250114	5329.07	1.02373
7.42768	130.61	0.0182288	5345.95	0.746116
7.48116	131.066	0.0248048	5364.61	1.01527
7.53353	131.52	0.0280106	5383.17	1.14649
7.58422	131.92	0.0210923	5399.54	0.863319
7.63677	132.355	0.0222645	5417.37	0.911298
7.68675	132.712	0.0197973	5431.99	0.810312
7.73704	133.151	0.0205456	5449.93	0.840943
7.78805	133.602	0.0305583	5468.41	1.25077
7.84026	133.971	0.0157139	5483.49	0.643176
7.89325	134.352	0.0283417	5499.08	1.16004
7.94607	134.767	0.0340755	5516.07	1.39473
7.99634	135.195	0.0280122	5533.59	1.14656
8.04622	135.46	0.027396	5544.46	1.12133
8.09921	135.894	0.0332154	5562.22	1.35952
8.1498	136.334	0.028072	5580.24	1.149
8.20155	136.613	0.02252	5591.63	0.921756
8.25313	137.009	0.0309158	5607.85	1.2654
8.3066	137.363	0.0273703	5622.35	1.12028
8.35997	137.78	0.0249352	5639.4	1.02061
8.41029	138.084	0.0249307	5651.86	1.02043
8.45866	138.452	0.0265196	5666.92	1.08546
8.50667	138.793	0.0266131	5680.86	1.08929
8.55283	139.062	0.0228672	5691.87	0.935965
8.59799	139.369	0.0243108	5704.45	0.995052
8.64671	139.725	0.0284431	5719.02	1.16419
8.69508	140	0.0289681	5730.28	1.18568
8.74268	140.299	0.0239866	5742.51	0.981784
8.79116	140.606	0.0279937	5755.06	1.1458
8.83889	140.919	0.0212453	5767.89	0.869582
8.88522	141.189	0.0281088	5778.94	1.15051
8.93321	141.49	0.0256793	5791.28	1.05107
8.98085	141.806	0.0231285	5804.2	0.946662
8.97418	141.837	0.0233443	5805.46	0.955493
8.92385	141.602	0.0285071	5795.84	1.16681
8.87863	141.35	0.0354106	5785.53	1.44938
8.83236	141.09	0.028367	5774.88	1.16108
8.7823	140.815	0.0273737	5763.62	1.12042
8.73383	140.535	0.0204343	5752.17	0.836386
8.68785	140.344	0.0288004	5744.34	1.17882
8.64236	140.044	0.0225099	5732.07	0.921344
8.59314	139.779	0.020889	5721.21	0.854998
8.54464	139.495	0.0302762	5709.6	1.23922
8.49741	139.254	0.0228474	5699.74	0.935156
8.4498	138.988	0.0288821	5688.83	1.18216
8.39989	138.691	0.0317323	5676.68	1.29882
8.34532	138.391	0.0305085	5664.42	1.24873
8.29333	138.06	0.021693	5650.88	0.887904
8.24359	137.859	0.024667	5642.63	1.00963
8.19151	137.544	0.0279072	5629.73	1.14226
8.13975	137.223	0.0254283	5616.61	1.04079
8.08555	136.917	0.0242779	5604.08	0.993706
8.03417	136.595	0.0255582	5590.91	1.04611
7.98374	136.287	0.0200675	5578.3	0.821374
7.93529	136.019	0.0191839	5567.34	0.785208
7.88494	135.735	0.0195821	5555.71	0.801506
7.83069	135.393	0.0292644	5541.69	1.19781
7.77935	135.065	0.0245256	5528.29	1.00385
7.72887	134.756	0.0200838	5515.62	0.822042
7.67552	134.457	0.0223627	5503.39	0.915318
7.62529	134.099	0.0226937	5488.74	0.928863
7.5714	133.771	0.0224088	5475.31	0.917205
7.51965	133.466	0.0217482	5462.82	0.890166
7.46654	133.153	0.0250285	5450.02	1.02443
7.41496	132.793	0.028338	5435.3	1.15989
7.36122	132.452	0.0212842	5421.31	0.871174
7.31074	132.103	0.0202783	5407.03	0.830001
7.25963	131.769	0.0199582	5393.38	0.8169
7.20707	131.448	0.0229767	5380.25	0.940447
7.15806	131.139	0.0227464	5367.59	0.931021
7.1072	130.779	0.0248429	5352.86	1.01683
7.05521	130.417	0.0205898	5338.02	0.842749
7.00353	130.077	0.0237212	5324.11	0.970923
6.95091	129.771	0.0293409	5311.6	1.20094
6.89779	129.369	0.0249507	5295.14	1.02124
6.84384	129.015	0.0219866	5280.63	0.899923
6.78987	128.623	0.0249939	5264.61	1.02301
6.74002	128.246	0.0200094	5249.17	0.818993
6.69042	127.884	0.03116	5234.37	1.2754
6.63878	127.535	0.0243736	5220.06	0.997624
6.58568	127.123	0.0187505	5203.21	0.767466
6.53435	126.782	0.0267239	5189.25	1.09382
6.48137	126.397	0.0223706	5173.49	0.91564
6.43055	126.017	0.0234416	5157.92	0.959478
6.37419	125.666	0.0205708	5143.56	0.841974
6.31961	125.218	0.0238428	5125.24	0.9759
6.27126	124.831	0.0233585	5109.41	0.956076
6.21695	124.454	0.0287686	5093.95	1.17751
6.16324	124.004	0.0243589	5075.53	0.997024
6.113	123.658	0.0224196	5061.38	0.917647
6.06054	123.208	0.0273861	5042.98	1.12093
6.01057	122.845	0.0234569	5028.09	0.960103
5.9606	122.417	0.0254926	5010.6	1.04342
5.90786	121.961	0.0255142	4991.93	1.04431
5.85616	121.606	0.0239466	4977.4	0.980146
5.80319	121.16	0.0225559	4959.13	0.923224
5.74817	120.718	0.028163	4941.04	1.15272
5.69592	120.279	0.0147728	4923.08	0.604657
5.64947	119.943	0.0204518	4909.31	0.837104
5.59874	119.499	0.027642	4891.14	1.1314
5.54515	119.019	0.0237812	4871.53	0.973377
5.49294	118.626	0.0222543	4855.44	0.910882
5.44123	118.142	0.0201867	4835.61	0.826254
5.39203	117.706	0.0230116	4817.76	0.941875
5.33879	117.235	0.0206472	4798.48	0.8451
5.28741	116.844	0.0265445	4782.49	1.08648
5.23585	116.377	0.0221631	4763.39	0.907149
5.18413	115.876	0.0235949	4742.85	0.965752
5.12988	115.405	0.0200028	4723.61	0.818724
5.07993	114.934	0.0233128	4704.31	0.954207
5.02771	114.444	0.0172607	4684.27	0.70649
4.97474	113.989	0.0240984	4665.63	0.98636
4.92226	113.468	0.0200919	4644.29	0.82237
4.86902	112.982	0.0250749	4624.41	1.02633
4.8164	112.488	0.0195314	4604.2	0.799432
4.76634	112.022	0.0201143	4585.11	0.823289
4.71648	111.519	0.0193845	4564.53	0.793419
4.66714	111.064	0.0193828	4545.92	0.793348
4.61623	110.545	0.0219553	4524.68	0.898643
4.56508	110.03	0.019556	4503.56	0.800438
4.51647	109.549	0.0157426	4483.88	0.644355
4.46687	109.046	0.0231242	4463.32	0.946485
4.41725	108.515	0.0175745	4441.56	0.719334
4.36786	108.032	0.019585	4421.82	0.801624
4.32053	107.529	0.0214917	4401.21	0.879666
4.2692	106.966	0.0224656	4378.19	0.91953
4.2171	106.417	0.017874	4355.7	0.731591
4.16863	105.94	0.0207514	4336.16	0.849367
4.11805	105.393	0.0242577	4313.8	0.992879
4.06805	104.806	0.0199199	4289.76	0.81533
4.0216	104.302	0.0190081	4269.14	0.778012
3.9701	103.738	0.0208178	4246.07	0.852083
3.91974	103.174	0.0197646	4222.95	0.808977
3.87004	102.594	0.0193838	4199.22	0.793389
3.82217	102.073	0.0210763	4177.91	0.862665
3.77146	101.444	0.0260014	4152.15	1.06425
3.72398	100.899	0.0189273	4129.86	0.774705
3.67689	100.37	0.0179633	4108.2	0.735246
3.62731	99.7673	0.0205543	4083.53	0.841297
3.57756	99.1494	0.0206215	4058.23	0.844051
3.52522	98.5093	0.0187228	4032.04	0.766335
3.47587	97.9097	0.0194709	4007.49	0.796956
3.42456	97.2444	0.0181713	3980.26	0.743759
3.3753	96.6708	0.0174535	3956.79	0.714382
3.32422	96.0001	0.0201469	3929.33	0.824623
3.27412	95.324	0.014864	3901.66	0.608391
3.22353	94.6846	0.0189934	3875.49	0.777408
3.17275	94.0247	0.016163	3848.48	0.661558
3.12359	93.3838	0.0191642	3822.25	0.7844
3.07208	92.6846	0.0227342	3793.63	0.930524
3.02237	91.9769	0.0172349	3764.66	0.705433
2.97261	91.386	0.0155112	3740.47	0.63488
2.92219	90.6317	0.0194107	3709.6	0.794488
2.87186	89.9208	0.0157312	3680.5	0.643887
2.82336	89.2558	0.0164225	3653.29	0.67218
2.77181	88.4879	0.0158872	3621.86	0.650272
2.71991	87.7635	0.0151649	3592.2	0.620708
2.67041	87.0445	0.0130528	3562.78	0.534257
2.61816	86.2808	0.0147647	3531.52	0.604329
2.56659	85.4732	0.0186847	3498.46	0.764774
2.51964	84.7719	0.012654	3469.76	0.517934
2.46952	83.9878	0.0119022	3437.66	0.487164
2.41857	83.2252	0.0147934	3406.45	0.605503
2.3701	82.4716	0.0150267	3375.6	0.615049
2.31941	81.6481	0.0147797	3341.9	0.604941
2.27055	80.895	0.0152178	3311.07	0.622872
2.22166	80.0965	0.012094	3278.39	0.495015
2.17169	79.2712	0.0123435	3244.61	0.505224
2.1202	78.4093	0.0148667	3209.33	0.6085
2.07325	77.6846	0.016053	3179.67	0.657059
2.02338	76.7867	0.0126113	3142.92	0.516186
1.9731	75.9355	0.0133948	3108.08	0.548255
1.92071	75.0814	0.0123516	3073.12	0.505557
1.87088	74.1553	0.0116989	3035.21	0.478844
1.81992	73.2817	0.0125217	2999.46	0.51252
1.77032	72.4083	0.0115628	2963.71	0.473272
1.71884	71.5054	0.0132381	2926.75	0.54184
1.66839	70.5301	0.0132538	2886.83	0.542487
1.61815	69.627	0.0127322	2849.87	0.521135
1.57316	68.795	0.0120051	2815.82	0.491376
1.52396	67.8535	0.0123074	2777.28	0.503748
1.47571	66.9562	0.0123753	2740.55	0.506528
1.42727	65.9996	0.0130197	2701.4	0.532901
1.37803	65.0788	0.0128359	2663.71	0.525381
1.32818	64.1073	0.0108202	2623.94	0.442876
1.28232	63.1716	0.0138234	2585.65	0.565801
1.2351	62.2815	0.0120786	2549.21	0.494383
1.18852	61.3322	0.0123276	2510.36	0.504576
1.13952	60.3094	0.0104685	2468.5	0.428482
1.08769	59.2929	0.0092135	2426.89	0.377113
1.03783	58.2624	0.0107193	2384.71	0.438744
0.990528	57.2685	0.0115368	2344.03	0.472209
0.939672	56.1724	0.0112673	2299.17	0.461177
0.889911	55.148	0.0127811	2257.24	0.523137
0.840531	54.0786	0.00966335	2213.47	0.395526
0.792315	53.0616	0.0102896	2171.84	0.421159
0.743224	51.9621	0.00976419	2126.84	0.399653
0.693764	50.8585	0.0110751	2081.67	0.453308
0.644525	49.7467	0.0118136	2036.16	0.483536
0.594552	48.6225	0.012037	1990.14	0.492681
0.545836	47.5482	0.0101838	1946.17	0.416828
0.496735	46.404	0.00954985	1899.34	0.39088
0.447265	45.2509	0.00974094	1852.14	0.398702
0.397381	44.0956	0.00988115	1804.85	0.40444
0.346144	42.9354	0.0100718	1757.37	0.412243
0.298197	41.8011	0.00922513	1710.94	0.377589
0.24884	40.6186	0.0102821	1662.54	0.420854
0.198995	39.4209	0.00931375	1613.52	0.381217
0.149019	38.2176	0.00984001	1564.27	0.402757
0.100266	36.9977	0.00949161	1514.33	0.388497
0.0510392	35.823	0.0110864	1466.26	0.453774
0.00194272	34.5675	0.0097438	1414.86	0.398819
-0.0402805	33.4982	0.00911309	1371.1	0.373004
-0.0877079	32.2998	0.00917732	1322.05	0.375632
-0.134254	31.1071	0.00928548	1273.23	0.380059
-0.183267	29.9025	0.00780048	1223.93	0.319278
-0.231081	28.6946	0.00885637	1174.49	0.362496
-0.280022	27.4089	0.0103411	1121.86	0.423266
-0.327626	26.1942	0.00966566	1072.14	0.395621
-0.377877	24.8946	0.008475	1018.95	0.346886
-0.428521	23.5288	0.00838208	963.046	0.343083
-0.4804	22.2159	0.00923705	909.309	0.378077
-0.529877	20.9047	0.00795848	855.639	0.325745
-0.579588	19.5781	0.00831657	801.341	0.340401
-0.630949	18.1779	0.00977398	744.029	0.400054
-0.678687	16.903	0.00973402	691.85	0.398419
-0.727562	15.6288	0.00880308	639.696	0.360315
-0.778283	14.2758	0.00987971	584.315	0.404382
-0.8286	12.841	0.00966118	525.588	0.395437
-0.877186	11.5379	0.00850779	472.251	0.348228
-0.927128	10.1497	0.00925572	415.433	0.378841
-0.976466	8.75126	0.00902615	358.193	0.369445
-1.02744	7.36013	0.00956615	301.254	0.391548
-1.07868	5.8813	0.0105045	240.725	0.429955
-1.12848	4.46976	0.00997667	182.95	0.40835
-1.17846	3.04535	0.0110778	124.648	0.45342
-1.22869	1.6147	0.0105902	66.0906	0.433463
-1.27563	0.241492	0.0110524	9.88441	0.45238
-1.32813	-1.27637	0.00991428	-52.2425	0.405797
-1.37716	-2.67315	0.0105506	-109.414	0.431843
-1.42699	-4.14168	0.00996024	-169.521	0.407678
-1.47755	-5.68129	0.0107049	-232.538	0.438158
-1.52895	-7.175	0.0105733	-293.676	0.432771
-1.5774	-8.58093	0.0111099	-351.222	0.454734
-1.62701	-10.0948	0.0121015	-413.184	0.49532
-1.67578	-11.595	0.00956421	-474.591	0.391468
-1.72267	-13.0453	0.0118741	-533.95	0.486011
-1.77266	-14.5619	0.0109927	-596.027	0.449938
-1.82463	-16.1674	0.011811	-661.739	0.483431
-1.87324	-17.6352	0.00927724	-721.82	0.379722
-1.92208	-19.1745	0.0121035	-784.824	0.495403
-1.97215	-20.7268	0.0100986	-848.357	0.413343
-2.02162	-22.2827	0.0115875	-912.041	0.474284
-2.06688	-23.6916	0.0116391	-969.711	0.476396
-2.11826	-25.2453	0.0125596	-1033.3	0.514072
-2.16544	-26.7336	0.011798	-1094.22	0.482897
-2.21227	-28.2422	0.011589	-1155.97	0.474342
-2.26191	-29.811	0.0128025	-1220.18	0.524014
-2.31365	-31.3841	0.0100439	-1284.57	0.411102
-2.36333	-32.9762	0.0145524	-1349.73	0.595638
-2.41292	-34.5249	0.0137635	-1413.12	0.563345
-2.46011	-36.037	0.0132501	-1475.01	0.542335
-2.50887	-37.5981	0.0132841	-1538.91	0.543723
-2.55861	-39.173	0.0156077	-1603.37	0.638831
-2.60793	-40.7559	0.013094	-1668.16	0.535945
-2.65814	-42.2343	0.0121803	-1728.67	0.498545
-2.70557	-43.8039	0.0127345	-1792.92	0.52123
-2.74819	-45.0491	0.0121662	-1843.88	0.497969
-2.79539	-46.5274	0.0124734	-1904.39	0.510544
-2.84422	-48.0458	0.013747	-1966.54	0.562673
-2.89006	-49.4489	0.0158535	-2023.97	0.648891
-2.93627	-50.8799	0.0182661	-2082.54	0.74764
-2.98316	-52.247	0.0132581	-2138.5	0.542659
-3.02988	-53.6842	0.0127537	-2197.32	0.522015
-3.07734	-55.0848	0.0129802	-2254.65	0.531285
-3.12256	-56.429	0.0149001	-2309.67	0.609867
-3.1684	-57.8319	0.0134455	-2367.09	0.550332
-3.21463	-59.1202	0.0136349	-2419.82	0.558082
-3.26198	-60.5101	0.0158763	-2476.71	0.649824
-3.30931	-61.8508	0.0133465	-2531.58	0.546278
-3.35354	-63.1203	0.014924	-2583.55	0.610847
-3.39962	-64.3974	0.0192317	-2635.82	0.787164
-3.44249	-65.6324	0.0165203	-2686.37	0.676186
-3.48945	-66.8641	0.0203784	-2736.78	0.834097
-3.53218	-68.0185	0.0198204	-2784.03	0.811259
-3.57964	-69.3202	0.0152639	-2837.31	0.62476
-3.62511	-70.5605	0.0229043	-2888.08	0.937483
-3.66887	-71.6676	0.0138205	-2933.39	0.56568
-3.71206	-72.775	0.0177193	-2978.72	0.725261
-3.75892	-73.988	0.01605	-3028.37	0.656933
-3.80463	-75.1162	0.0160161	-3074.54	0.655548
-3.84925	-76.2227	0.0160628	-3119.83	0.657458
-3.89522	-77.4014	0.0172518	-3168.08	0.706125
-3.93994	-78.4713	0.011613	-3211.87	0.475328
-3.98377	-79.5089	0.0167607	-3254.34	0.686023
-4.02791	-80.5732	0.0165732	-3297.9	0.67835
-4.07288	-81.5897	0.0178598	-3339.51	0.73101
-4.11425	-82.5054	0.0159573	-3376.99	0.653142
-4.16096	-83.57	0.0238358	-3420.56	0.975612
-4.20705	-84.6361	0.0159006	-3464.2	0.65082
-4.25326	-85.6108	0.0175524	-3504.09	0.718431
-4.29651	-86.5334	0.0167381	-3541.86	0.685099
-4.34448	-87.6109	0.0200525	-3585.96	0.820758
-4.3888	-88.555	0.0139755	-3624.6	0.572023
-4.43428	-89.4614	0.0161609	-3661.7	0.661475
-4.4802	-90.3402	0.0175952	-3697.67	0.720182
-4.5248	-91.248	0.0141562	-3734.83	0.579421
-4.56916	-92.1339	0.017727	-3771.09	0.725576
-4.61211	-92.9681	0.0207989	-3805.23	0.851309
-4.65734	-93.8049	0.0155633	-3839.48	0.637014
-4.7033	-94.6778	0.0190936	-3875.21	0.781511
-4.75162	-95.5835	0.0196609	-3912.28	0.804732
-4.79675	-96.3974	0.0184222	-3945.6	0.754032
-4.83908	-97.1675	0.0175791	-3977.11	0.719524
-4.88605	-97.9865	0.0172024	-4010.64	0.704102
-4.93169	-98.7943	0.0168672	-4043.7	0.690385
-4.97581	-99.5209	0.0144044	-4073.44	0.58958
-5.02476	-100.335	0.0192039	-4106.75	0.786026
-5.07148	-101.125	0.0194081	-4139.11	0.794384
-5.1168	-101.867	0.023453	-4169.49	0.959942
-5.16402	-102.603	0.0170013	-4199.61	0.695872
-5.20929	-103.338	0.0197008	-4229.66	0.806366
-5.25457	-104.006	0.0173894	-4257.03	0.711756
-5.30306	-104.819	0.0186253	-4290.3	0.762344
-5.35018	-105.467	0.0172743	-4316.83	0.707045
-5.39689	-106.16	0.0158719	-4345.17	0.649643
-5.441	-106.846	0.0135956	-4373.26	0.556474
-5.48847	-107.518	0.0189111	-4400.76	0.774039
-5.53482	-108.198	0.0182468	-4428.62	0.746852
-5.58103	-108.801	0.0199296	-4453.27	0.815731
-5.62701	-109.464	0.0183298	-4480.4	0.750249
-5.67574	-110.148	0.0209048	-4508.43	0.855643
-5.72368	-110.71	0.0200924	-4531.42	0.822392
-5.77029	-111.37	0.0207521	-4558.45	0.849394
-5.81442	-111.97	0.0192793	-4582.98	0.789113
-5.86375	-112.57	0.0223981	-4607.55	0.916764
-5.90786	-113.128	0.0212029	-4630.37	0.867845
-5.95357	-113.692	0.022389	-4653.46	0.916395
-5.99841	-114.253	0.0228462	-4676.44	0.935108
-6.04437	-114.822	0.0179168	-4699.73	0.733342
-6.0906	-115.325	0.0228169	-4720.32	0.933909
-6.13908	-115.93	0.0203443	-4745.06	0.832703
-6.18742	-116.459	0.0194161	-4766.72	0.794712
-6.23439	-117.027	0.0188929	-4789.98	0.773296
-6.28245	-117.572	0.0252846	-4812.27	1.03491
-6.33065	-118.102	0.0237649	-4833.96	0.972708
-6.37798	-118.596	0.0227724	-4854.19	0.932087
-6.42371	-119.157	0.0211981	-4877.15	0.867648
-6.46867	-119.626	0.0228088	-4896.36	0.933576
-6.51402	-120.064	0.0262736	-4914.27	1.07539
-6.56037	-120.552	0.0214987	-4934.26	0.879955
-6.60519	-121.047	0.0197478	-4954.52	0.808287
-6.65055	-121.472	0.0218013	-4971.91	0.892337
-6.69869	-121.983	0.0223166	-4992.84	0.913432
-6.7439	-122.42	0.0203909	-5010.7	0.834612
-6.79027	-122.867	0.0250483	-5029	1.02524
-6.83784	-123.294	0.0170821	-5046.47	0.699179
-6.88455	-123.777	0.0233177	-5066.24	0.954404
-6.93078	-124.226	0.024762	-5084.62	1.01352
-6.97848	-124.67	0.0160674	-5102.82	0.657646
-7.02592	-125.1	0.0175919	-5120.42	0.720044
-7.07341	-125.539	0.0239659	-5138.4	0.980937
-7.12126	-125.998	0.0212441	-5157.15	0.869533
-7.16748	-126.416	0.0248126	-5174.29	1.01559
-7.21418	-126.809	0.0237047	-5190.34	0.970244
-7.26517	-127.257	0.0232923	-5208.68	0.953365
-7.31189	-127.641	0.01861	-5224.4	0.761717
-7.36024	-128.048	0.0238505	-5241.06	0.976213
-7.40984	-128.519	0.0269892	-5260.35	1.10468
-7.46042	-128.927	0.0203082	-5277.05	0.831225
-7.5105	-129.309	0.0270416	-5292.7	1.10682
-7.56222	-129.749	0.0220159	-5310.69	0.901121
-7.61361	-130.111	0.0215951	-5325.53	0.883898
-7.66568	-130.565	0.0216946	-5344.07	0.88797
-7.71925	-130.953	0.0265002	-5359.96	1.08467
-7.76623	-131.36	0.0219876	-5376.65	0.899962
-7.81917	-131.77	0.0207552	-5393.4	0.849521
-7.87241	-132.162	0.0233868	-5409.45	0.957234
-7.92226	-132.59	0.0247431	-5426.99	1.01275
-7.97447	-132.921	0.0236518	-5440.53	0.96808
-8.02294	-133.301	0.0224984	-5456.07	0.920872
-8.075	-133.687	0.025679	-5471.86	1.05105
-8.12808	-134.052	0.020201	-5486.82	0.826838
-8.18189	-134.438	0.0261956	-5502.62	1.0722
-8.23034	-134.774	0.0242087	-5516.35	0.990876
-8.28256	-135.153	0.0212022	-5531.87	0.867816
-8.33448	-135.498	0.0329225	-5546.01	1.34753
-8.38297	-135.83	0.0192354	-5559.58	0.787313
-8.4342	-136.197	0.0263166	-5574.59	1.07715
-8.48137	-136.5	0.0235678	-5587.01	0.964641
-8.53081	-136.838	0.0278269	-5600.86	1.13897
-8.58176	-137.129	0.0228971	-5612.75	0.937188
-8.62895	-137.489	0.0311054	-5627.5	1.27316
-8.67806	-137.766	0.021867	-5638.84	0.895027
-8.72653	-138.128	0.0290377	-5653.63	1.18853
-8.77313	-138.379	0.024434	-5663.91	1.0001
-8.8227	-138.703	0.0301838	-5677.18	1.23544
-8.87127	-138.962	0.0311764	-5687.79	1.27607
-8.91498	-139.273	0.023586	-5700.51	0.965386
-8.96561	-139.585	0.0219171	-5713.28	0.897078
-8.98802	-139.804	0.0263879	-5722.24	1.08007
-8.94046	-139.584	0.0255312	-5713.25	1.045
-8.89052	-139.328	0.0230306	-5702.78	0.942654
-8.84354	-139.104	0.0265462	-5693.6	1.08655
-8.79761	-138.954	0.0247265	-5687.47	1.01207
-8.74749	-138.629	0.0291824	-5674.16	1.19445
-8.69915	-138.38	0.0295291	-5663.96	1.20864
-8.64845	-138.121	0.0279628	-5653.36	1.14453
-8.59975	-137.856	0.0314874	-5642.5	1.2888
-8.55092	-137.635	0.0283002	-5633.49	1.15834
-8.50192	-137.371	0.0244529	-5622.68	1.00087
-8.45308	-137.142	0.0254363	-5613.3	1.04112
-8.40324	-136.899	0.025466	-5603.36	1.04234
-8.35153	-136.626	0.0274726	-5592.19	1.12447
-8.29965	-136.343	0.0298553	-5580.59	1.22199
-8.24794	-136.057	0.0242229	-5568.87	0.991457
-8.19637	-135.786	0.0231077	-5557.77	0.945809
-8.14578	-135.53	0.0273392	-5547.33	1.11901
-8.09507	-135.22	0.0249134	-5534.62	1.01972
-8.04049	-134.872	0.0232158	-5520.39	0.950233
-7.98966	-134.622	0.0239505	-5510.16	0.980308
-7.93822	-134.366	0.0264874	-5499.67	1.08414
-7.88411	-134.052	0.0181786	-5486.81	0.744059
-7.83505	-133.763	0.0289555	-5475.01	1.18517
-7.78145	-133.464	0.0203231	-5462.76	0.831836
-7.72844	-133.163	0.0195296	-5450.42	0.799357
-7.67617	-132.864	0.0258489	-5438.2	1.05801
-7.62478	-132.506	0.0269346	-5423.54	1.10245
-7.5727	-132.211	0.0229516	-5411.48	0.939422
-7.52172	-131.942	0.0251608	-5400.44	1.02985
-7.46736	-131.606	0.0207616	-5386.71	0.849782
-7.41463	-131.306	0.0317874	-5374.44	1.30107
-7.36069	-130.978	0.0232501	-5360.99	0.951638
-7.30987	-130.688	0.0209356	-5349.14	0.856907
-7.26263	-130.338	0.0231682	-5334.79	0.948287
-7.21393	-130.042	0.0277158	-5322.69	1.13442
-7.16956	-129.775	0.0200436	-5311.75	0.820393
-7.12232	-129.512	0.0206792	-5300.98	0.846409
-7.07513	-129.196	0.0237233	-5288.06	0.971008
-7.02877	-128.887	0.0215274	-5275.39	0.881127
-6.98305	-128.628	0.0307401	-5264.82	1.25821
-6.93937	-128.311	0.023385	-5251.84	0.957162
-6.89264	-128.011	0.0213457	-5239.54	0.873689
-6.84452	-127.707	0.0276415	-5227.1	1.13138
-6.79947	-127.447	0.0183284	-5216.46	0.750191
-6.7525	-127.09	0.0205629	-5201.85	0.84165
-6.70463	-126.785	0.0214596	-5189.38	0.878351
-6.66001	-126.48	0.0202694	-5176.89	0.829636
-6.61554	-126.176	0.0273431	-5164.44	1.11917
-6.56558	-125.89	0.0253262	-5152.76	1.03662
-6.51885	-125.536	0.024722	-5138.25	1.01188
-6.47412	-125.219	0.0294407	-5125.29	1.20502
-6.42832	-124.917	0.0239679	-5112.93	0.98102
-6.38195	-124.566	0.0209102	-5098.53	0.855866
-6.33336	-124.286	0.0225589	-5087.08	0.923349
-6.28862	-123.943	0.0334289	-5073.05	1.36826
-6.23997	-123.593	0.0181293	-5058.74	0.742042
-6.1929	-123.252	0.0215052	-5044.78	0.88022
-6.14402	-122.901	0.0207873	-5030.39	0.850835
-6.09441	-122.541	0.019498	-5015.65	0.798062
-6.04761	-122.166	0.0190813	-5000.32	0.781007
-6.00127	-121.839	0.0235508	-4986.95	0.963948
-5.95221	-121.48	0.0238933	-4972.23	0.977967
-5.90533	-121.172	0.0227756	-4959.64	0.932217
-5.85974	-120.806	0.0217875	-4944.63	0.891774
-5.81525	-120.463	0.0215768	-4930.62	0.883151
-5.76852	-120.114	0.0233879	-4916.32	0.957277
-5.72167	-119.757	0.0219327	-4901.71	0.897716
-5.67569	-119.37	0.0211765	-4885.87	0.866765
-5.63109	-119.035	0.0243361	-4872.18	0.996089
-5.5872	-118.686	0.0174653	-4857.88	0.714863
-5.53939	-118.318	0.0227379	-4842.82	0.930672
-5.49041	-117.88	0.0170579	-4824.89	0.69819
-5.44336	-117.569	0.0197604	-4812.14	0.808802
-5.39614	-117.18	0.0205271	-4796.24	0.840184
-5.34964	-116.767	0.0205845	-4779.34	0.842534
-5.30092	-116.349	0.0221425	-4762.22	0.906306
-5.25219	-115.952	0.0216692	-4745.99	0.886932
-5.20624	-115.584	0.0218726	-4730.91	0.895257
-5.16013	-115.22	0.0190189	-4716	0.778453
-5.11195	-114.783	0.0194446	-4698.11	0.795878
-5.06647	-114.407	0.023204	-4682.72	0.949753
-5.0185	-113.946	0.0215819	-4663.85	0.883359
-4.97016	-113.533	0.0210202	-4646.95	0.860367
-4.92157	-113.076	0.0161432	-4628.24	0.66075
-4.87419	-112.69	0.0193028	-4612.45	0.790073
-4.8277	-112.287	0.0200649	-4595.95	0.821266
-4.77851	-111.802	0.0188679	-4576.13	0.772271
-4.73155	-111.386	0.0212881	-4559.09	0.871333
-4.68632	-110.963	0.0164347	-4541.79	0.672679
-4.63819	-110.531	0.0202267	-4524.08	0.827889
-4.59438	-110.108	0.0223086	-4506.79	0.913101
-4.5473	-109.662	0.0167296	-4488.52	0.684752
-4.49881	-109.177	0.015921	-4468.67	0.651656
-4.44952	-108.735	0.0197576	-4450.6	0.808687
-4.4023	-108.269	0.0139643	-4431.5	0.571565
-4.35494	-107.766	0.0176984	-4410.92	0.724404
-4.30725	-107.341	0.021316	-4393.5	0.872474
-4.26213	-106.875	0.0198244	-4374.44	0.811424
-4.21831	-106.403	0.018514	-4355.13	0.757787
-4.16986	-105.894	0.0180812	-4334.31	0.740073
-4.12527	-105.466	0.0161329	-4316.77	0.660328
-4.07964	-104.967	0.0182792	-4296.34	0.748176
-4.03702	-104.524	0.0194067	-4278.22	0.794325
-3.99368	-104.09	0.0209913	-4260.47	0.859183
-3.94944	-103.592	0.017516	-4240.07	0.716941
-3.90271	-103.098	0.0189617	-4219.87	0.776112
-3.8546	-102.557	0.020893	-4197.72	0.85516
-3.80715	-102.063	0.023237	-4177.51	0.951102
-3.76094	-101.559	0.0195077	-4156.87	0.79846
-3.71858	-101.088	0.0179972	-4137.58	0.736634
-3.67486	-100.554	0.0157027	-4115.74	0.642718
-3.62876	-100.053	0.0181938	-4095.21	0.744682
-3.58304	-99.5022	0.0170902	-4072.68	0.699509
-3.53717	-98.9821	0.0162581	-4051.39	0.665451
-3.49133	-98.4215	0.0182387	-4028.44	0.746519
-3.44564	-97.8551	0.018068	-4005.26	0.739532
-3.3978	-97.3076	0.0210176	-3982.85	0.860261
-3.35419	-96.8074	0.0198892	-3962.38	0.814076
-3.30672	-96.2244	0.0190649	-3938.51	0.780336
-3.26001	-95.6172	0.0157004	-3913.66	0.642624
-3.21467	-95.0711	0.0177543	-3891.31	0.726692
-3.16971	-94.497	0.0178272	-3867.81	0.729678
-3.12421	-93.9288	0.0154498	-3844.56	0.632367
-3.07837	-93.3219	0.0166092	-3819.71	0.679823
-3.03232	-92.7275	0.0222256	-3795.38	0.909705
-2.9877	-92.1347	0.0161157	-3771.12	0.659625
-2.94093	-91.5157	0.0179065	-3745.78	0.732921
-2.89397	-90.8894	0.0153536	-3720.15	0.62843
-2.84752	-90.2646	0.0155532	-3694.58	0.636602
-2.80139	-89.6228	0.0131488	-3668.31	0.538187
-2.7553	-88.9884	0.0156993	-3642.34	0.642582
-2.70808	-88.3532	0.0159775	-3616.34	0.653966
-2.66058	-87.6818	0.0140935	-3588.86	0.576854
-2.61495	-87.0343	0.0143324	-3562.36	0.586632
-2.56887	-86.3445	0.0119788	-3534.12	0.4903
-2.52515	-85.7326	0.0178679	-3509.08	0.731342
-2.47818	-85.0315	0.0128751	-3480.38	0.526986
-2.43122	-84.3204	0.0147283	-3451.28	0.602839
-2.38537	-83.6291	0.0140313	-3422.98	0.574309
-2.33702	-82.8759	0.0124932	-3392.15	0.511354
-2.29294	-82.2275	0.0126179	-3365.61	0.516458
-2.24796	-81.5325	0.0131752	-3337.17	0.539266
-2.20106	-80.7934	0.0146788	-3306.92	0.600812
-2.15448	-80.0208	0.013111	-3275.29	0.536641
-2.11065	-79.3524	0.0120534	-3247.93	0.49335
-2.06564	-78.6262	0.0163793	-3218.21	0.670413
-2.02005	-77.8773	0.0129907	-3187.56	0.531715
-1.97383	-77.1202	0.0134715	-3156.57	0.551396
-1.928	-76.3189	0.0145648	-3123.77	0.596144
-1.8809	-75.5647	0.0131142	-3092.9	0.536772
-1.83632	-74.7944	0.0138078	-3061.37	0.565161
-1.78985	-73.9852	0.011924	-3028.25	0.488056
-1.74235	-73.1607	0.0138365	-2994.5	0.566336
-1.69673	-72.3657	0.0105824	-2961.97	0.433143
-1.65144	-71.5557	0.0130362	-2928.81	0.533578
-1.60794	-70.7537	0.0119773	-2895.99	0.490236
-1.56271	-69.9505	0.0121623	-2863.11	0.497808
-1.51899	-69.1706	0.0131717	-2831.19	0.539126
-1.47363	-68.3368	0.0115171	-2797.06	0.4714
-1.42793	-67.4441	0.0102082	-2760.52	0.417826
-1.3818	-66.5973	0.0120072	-2725.86	0.491462
-1.33592	-65.7404	0.011029	-2690.79	0.451423
-1.29108	-64.8118	0.0110822	-2652.78	0.453599
-1.24447	-63.9575	0.0121446	-2617.81	0.497085
-1.19989	-63.0559	0.0102488	-2580.91	0.41949
-1.15427	-62.1649	0.0110166	-2544.44	0.450916
-1.10832	-61.2152	0.00890877	-2505.57	0.364641
-1.06184	-60.3042	0.0096722	-2468.28	0.395888
-1.01534	-59.3169	0.00800187	-2427.87	0.327521
-0.972865	-58.4354	0.00923042	-2391.79	0.377806
-0.929431	-57.5608	0.0116587	-2356	0.477196
-0.884252	-56.6082	0.0091768	-2317	0.375611
-0.839242	-55.5885	0.00922402	-2275.26	0.377544
-0.797898	-54.7179	0.0106757	-2239.63	0.436962
-0.754456	-53.8064	0.0104523	-2202.33	0.427816
-0.710456	-52.7994	0.00984174	-2161.11	0.402827
-0.66697	-51.817	0.0101586	-2120.9	0.415797
-0.622246	-50.86	0.0109373	-2081.73	0.447668
-0.577894	-49.8489	0.0113502	-2040.34	0.464569
-0.532694	-48.8246	0.0104622	-1998.41	0.428222
-0.487436	-47.7854	0.0100333	-1955.88	0.410669
-0.442566	-46.7472	0.00984601	-1913.39	0.403002
-0.396571	-45.6299	0.00748037	-1867.66	0.306175
-0.353098	-44.6337	0.00900931	-1826.88	0.368756
-0.308113	-43.5501	0.00846984	-1782.53	0.346675
-0.266718	-42.5278	0.00695151	-1740.69	0.284529
-0.220903	-41.4338	0.00858521	-1695.91	0.351397
-0.173915	-40.2639	0.00751839	-1648.02	0.307731
-0.126682	-39.1432	0.00884504	-1602.15	0.362032
-0.0822008	-37.9516	0.00747727	-1553.38	0.306049
-0.0364499	-36.8031	0.00872815	-1506.37	0.357248
0.00702467	-35.7022	0.00762539	-1461.31	0.312111
0.049991	-34.534	0.00949632	-1413.49	0.388689
0.0951613	-33.344	0.00882396	-1364.79	0.361169
0.141453	-32.1722	0.00884482	-1316.83	0.362023
0.183482	-31.0534	0.00757956	-1271.03	0.310235
0.229776	-29.7922	0.00800059	-1219.41	0.327468
0.27272	-28.651	0.00853437	-1172.7	0.349316
0.316962	-27.4429	0.00912671	-1123.25	0.373561
0.361936	-26.2141	0.00810101	-1072.96	0.331579
0.405703	-25.0566	0.00761693	-1025.58	0.311765
0.449485	-23.8837	0.0085675	-977.572	0.350672
0.493718	-22.6362	0.00964459	-926.513	0.394758
0.537335	-21.3813	0.00908634	-875.149	0.371909
0.581165	-20.1752	0.0087604	-825.781	0.358568
0.626279	-18.9007	0.00932859	-773.615	0.381824
0.670993	-17.6148	0.00980751	-720.982	0.401426
0.718476	-16.2482	0.00789203	-665.047	0.323025
0.764717	-14.8562	0.010799	-608.073	0.442008
0.809165	-13.5525	0.0101751	-554.711	0.416472
0.851113	-12.299	0.00986363	-503.405	0.403723
0.895551	-11.0354	0.00929806	-451.687	0.380574
0.938935	-9.69773	0.00892744	-396.933	0.365405
0.983659	-8.33164	0.0101973	-341.018	0.417382
1.02739	-7.04296	0.0091725	-288.272	0.375435
1.07233	-5.67325	0.0101485	-232.209	0.415384
1.11808	-4.29139	0.0095302	-175.649	0.390076
1.16291	-2.89751	0.00986906	-118.596	0.403946
1.20732	-1.49087	0.0097603	-61.0222	0.399494
1.25202	-0.0884907	0.0104487	-3.62197	0.427671
1.29675	1.34456	0.0100877	55.0336	0.412896
1.34272	2.77655	0.0110803	113.646	0.453524
1.38687	4.20739	0.0115368	172.211	0.472208
1.43243	5.64834	0.0108309	231.19	0.443315
1.47862	7.19341	0.0113955	294.43	0.466423
1.52434	8.66235	0.0109017	354.554	0.446213
1.57009	10.1253	0.0101965	414.436	0.417348
1.61485	11.5922	0.0125904	474.475	0.515332
1.66181	13.1575	0.0119332	538.541	0.488434
1.70564	14.659	0.0126207	600.002	0.516572
1.75287	16.1378	0.0115775	660.53	0.473874
1.79509	17.6315	0.0121771	721.665	0.498413
1.84084	19.1482	0.0117769	783.744	0.482034
1.885725	20.6388	0.0107822	844.757	0.44132
1.92552	21.9848	0.0109458	899.85	0.448016
1.9683	23.4147	0.0108362	958.374	0.443532
2.01336	24.9328	0.0127494	1020.51	0.521841
2.05623	26.3708	0.0124232	1079.37	0.50849
2.10282	27.8582	0.0138177	1140.25	0.565566
2.1479	29.464	0.014905	1205.98	0.610069
2.19551	31.0548	0.0104709	1271.09	0.42858
2.24041	32.5729	0.0119814	1333.23	0.490403
2.28613	34.0682	0.0120886	1394.43	0.494794
2.33035	35.5721	0.0169476	1455.98	0.693673
2.37445	36.9884	0.0144413	1513.95	0.591088
2.41942	38.554	0.0128521	1578.04	0.526044
2.46457	39.9589	0.0139355	1635.54	0.570386
2.50548	41.3623	0.0111247	1692.98	0.455339
2.55048	42.8349	0.0116822	1753.26	0.47816
2.59654	44.2976	0.0138904	1813.13	0.568542
2.64216	45.7435	0.0112557	1872.31	0.460703
2.68532	47.181	0.0125078	1931.14	0.51195
2.72782	48.5471	0.0127615	1987.06	0.522333
2.77364	49.9695	0.0153744	2045.28	0.629281
2.81899	51.4276	0.0123203	2104.96	0.504275
2.86396	52.7478	0.0154259	2159	0.631389
2.90819	54.1422	0.0142833	2216.07	0.584625
2.95216	55.5315	0.0154148	2272.93	0.630936
2.99663	56.7992	0.015808	2324.82	0.647028
3.03991	58.1469	0.0181859	2379.98	0.744359
3.08433	59.4633	0.0165854	2433.87	0.678849
3.13023	60.7868	0.0170031	2488.04	0.695947
3.17182	62.0044	0.0191479	2537.87	0.783732
3.2198	63.3616	0.0134169	2593.42	0.549161
3.26488	64.6322	0.0173845	2645.43	0.711556
3.31063	65.8752	0.0189321	2696.31	0.774901
3.35457	67.1049	0.0185468	2746.64	0.759129
3.39969	68.3302	0.0178541	2796.79	0.730778
3.44453	69.5295	0.0154406	2845.88	0.631993
3.48952	70.7174	0.0191466	2894.5	0.78368
3.53677	71.9526	0.0169926	2945.06	0.695515
3.58059	73.0395	0.0204132	2989.54	0.835521
3.62446	74.159	0.0183244	3035.37	0.750027
3.6697	75.2814	0.0208009	3081.3	0.851391
3.71466	76.3692	0.0165183	3125.83	0.676103
3.76086	77.5331	0.0182439	3173.47	0.746733
3.80405	78.538	0.0190475	3214.6	0.779622
3.84855	79.5702	0.0167402	3256.85	0.685185
3.89291	80.608	0.014767	3299.33	0.60442
3.93899	81.6256	0.019405	3340.98	0.794259
3.98238	82.5799	0.0183611	3380.04	0.751531
4.02436	83.4908	0.0179267	3417.32	0.733748
4.07087	84.5255	0.0181808	3459.67	0.744148
4.11621	85.5282	0.0195926	3500.71	0.801935
4.16091	86.4431	0.0161232	3538.16	0.659932
4.20642	87.3766	0.0140383	3576.37	0.574595
4.25359	88.3487	0.0181618	3616.16	0.743372
4.29921	89.2431	0.0193909	3652.76	0.79368
4.33967	90.0687	0.021668	3686.56	0.886881
4.38416	90.8833	0.0206482	3719.9	0.845141
4.42926	91.7463	0.0191644	3755.23	0.784411
4.47391	92.5895	0.0230432	3789.74	0.943168
4.51965	93.4931	0.019159	3826.72	0.784189
4.56462	94.2687	0.0151382	3858.47	0.619616
4.60834	95.0457	0.018258	3890.27	0.747309
4.65207	95.835	0.0187027	3922.58	0.765512
4.6944	96.5905	0.0189213	3953.5	0.774457
4.7405	97.3346	0.0191075	3983.96	0.78208
4.78736	98.1484	0.0232059	4017.26	0.94983
4.83034	98.8425	0.0171999	4045.68	0.704
4.8758	99.5438	0.0208416	4074.38	0.853059
4.92018	100.279	0.021164	4104.49	0.866252
4.96442	101.009	0.0171205	4134.37	0.700752
5.01065	101.697	0.0248446	4162.53	1.0169
5.05423	102.371	0.0235796	4190.12	0.965125
5.09494	103.002	0.0224639	4215.91	0.919458
5.14142	103.678	0.0209531	4243.57	0.85762
5.18591	104.308	0.0242611	4269.38	0.993019
5.22977	104.968	0.0251898	4296.4	1.03103
5.27634	105.647	0.0179436	4324.19	0.73444
5.32382	106.318	0.0238724	4351.67	0.977108
5.37057	106.952	0.0168705	4377.58	0.69052
5.41641	107.541	0.0190034	4401.7	0.777819
5.46562	108.228	0.0237355	4429.81	0.971508
5.51033	108.808	0.0222543	4453.56	0.910879
5.55445	109.4	0.0254774	4477.78	1.0428
5.59729	109.934	0.0229772	4499.64	0.940469
5.64515	110.512	0.0232154	4523.31	0.950217
5.69199	111.146	0.0243995	4549.28	0.998686
5.73835	111.733	0.0180877	4573.27	0.740341
5.78295	112.27	0.0226792	4595.26	0.928273
5.82847	112.776	0.0203914	4615.96	0.834629
5.87282	113.308	0.0211384	4637.74	0.865205
5.91641	113.846	0.0261025	4659.78	1.06839
5.96201	114.356	0.0268551	4680.65	1.09919
6.00713	114.88	0.0232578	4702.09	0.951956
6.05147	115.391	0.0235249	4723.01	0.962885
6.09684	115.893	0.0252066	4743.54	1.03172
6.14352	116.396	0.0271728	4764.15	1.1122
6.1885	116.911	0.0194352	4785.25	0.795492
6.23348	117.404	0.0260597	4805.4	1.06664
6.27726	117.816	0.0282748	4822.26	1.1573
6.324	118.332	0.0280687	4843.4	1.14887
6.37083	118.843	0.022844	4864.32	0.935015
6.4157	119.328	0.0229055	4884.16	0.937532
6.46166	119.706	0.0224833	4899.64	0.920254
6.50628	120.172	0.0271778	4918.7	1.1124
6.55251	120.662	0.0241451	4938.74	0.988271
6.59872	121.084	0.0231714	4956.03	0.948416
6.64444	121.56	0.0220791	4975.52	0.903709
6.6907	121.989	0.0302405	4993.06	1.23776
6.73556	122.402	0.0255328	5009.97	1.04507
6.77966	122.882	0.0221469	5029.64	0.906482
6.82352	123.177	0.0215685	5041.69	0.882809
6.87047	123.694	0.0246185	5062.87	1.00765
6.91582	124.064	0.0211112	5078	0.864093
6.96228	124.471	0.0233355	5094.65	0.955135
7.00668	124.869	0.0218469	5110.94	0.894206
7.05013	125.238	0.0262698	5126.04	1.07524
7.09586	125.652	0.0236207	5143.01	0.966809
7.14296	126.072	0.0196823	5160.21	0.805606
7.19058	126.438	0.0269298	5175.18	1.10225
7.23329	126.799	0.023104	5189.95	0.945657
7.27577	127.186	0.0285934	5205.79	1.17034
7.32155	127.55	0.0241196	5220.67	0.987228
7.36872	127.946	0.0244795	5236.91	1.00196
7.41645	128.332	0.0218076	5252.7	0.892597
7.45982	128.701	0.0231272	5267.78	0.946607
7.50641	129.074	0.0212568	5283.05	0.870054
7.55362	129.445	0.0295582	5298.25	1.20983
7.60059	129.766	0.0253846	5311.39	1.039
7.64525	130.134	0.0291263	5326.45	1.19215
7.69061	130.49	0.0236176	5341.02	0.96668
7.73734	130.809	0.0254851	5354.06	1.04312
7.78017	131.169	0.0208042	5368.83	0.851527
7.82405	131.503	0.0275045	5382.49	1.12577
7.8694	131.846	0.0253657	5396.54	1.03823
7.91599	132.199	0.018986	5410.97	0.777106
7.961	132.53	0.0270925	5424.52	1.10891
8.00408	132.772	0.0192076	5434.42	0.786175
8.05022	133.105	0.0298671	5448.06	1.22248
8.095	133.436	0.0290319	5461.6	1.18829
8.13597	133.704	0.0180386	5472.56	0.738328
8.18204	134.06	0.031189	5487.16	1.27658
8.22744	134.324	0.0263164	5497.93	1.07714
8.27264	134.652	0.0268048	5511.38	1.09713
8.31926	134.982	0.0305832	5524.89	1.25179
8.3671	135.381	0.024046	5541.22	0.984213
8.41122	135.591	0.0301947	5549.79	1.23588
8.45693	135.886	0.0367226	5561.89	1.50308
8.49984	136.174	0.0272132	5573.67	1.11385
8.54167	136.45	0.029297	5584.97	1.19914
8.58303	136.718	0.0289883	5595.94	1.18651
8.62514	136.95	0.0254532	5605.41	1.04181
8.66803	137.288	0.0313804	5619.29	1.28442
8.70749	137.502	0.0277701	5628.05	1.13665
8.74772	137.78	0.0295435	5639.39	1.20923
8.7923	138.035	0.0297826	5649.85	1.21902
8.83429	138.311	0.0262979	5661.14	1.07639
8.87675	138.604	0.0268158	5673.15	1.09759
8.91751	138.85	0.0309964	5683.2	1.2687
8.96174	139.118	0.0250673	5694.16	1.02602
8.99995	139.307	0.0260115	5701.89	1.06466
8.95924	139.206	0.0235642	5697.78	0.964496
8.91859	139.029	0.0321156	5690.52	1.31451
8.87874	138.834	0.0274038	5682.55	1.12165
8.84038	138.678	0.0267309	5676.15	1.09411
8.79834	138.383	0.0260135	5664.08	1.06475
8.75442	138.219	0.0274711	5657.38	1.12441
8.71204	137.998	0.0273027	5648.34	1.11751
8.67178	137.83	0.0232967	5641.46	0.953545
8.62938	137.608	0.0257817	5632.38	1.05526
8.58534	137.395	0.0246642	5623.66	1.00952
8.54189	137.127	0.0276655	5612.67	1.13236
8.49952	136.952	0.0295608	5605.5	1.20994
8.45575	136.651	0.0290599	5593.19	1.18944
8.41174	136.45	0.0226315	5584.95	0.926319
8.36615	136.236	0.0308219	5576.2	1.26156
8.32192	135.986	0.026064	5565.98	1.06681
8.27658	135.766	0.0226873	5556.96	0.928601
8.23147	135.478	0.0334046	5545.18	1.36727
8.18819	135.245	0.0287216	5535.66	1.17559
8.14139	135.01	0.0231254	5526.05	0.946534
8.09552	134.792	0.0303679	5517.1	1.24297
8.05117	134.478	0.0273259	5504.25	1.11846
8.00721	134.258	0.0270835	5495.27	1.10854
7.95836	134.015	0.0256546	5485.29	1.05006
7.91016	133.741	0.0266238	5474.07	1.08973
7.86191	133.504	0.024018	5464.39	0.983068
7.82003	133.262	0.0251343	5454.49	1.02876
7.7732	132.976	0.0247091	5442.77	1.01136
7.72512	132.712	0.0260697	5431.98	1.06705
7.67846	132.45	0.0280222	5421.26	1.14696
7.631	132.205	0.0229891	5411.21	0.940955
7.58713	131.94	0.0220238	5400.35	0.901445
7.54126	131.629	0.0198026	5387.64	0.81053
7.4986	131.433	0.0267567	5379.63	1.09517
7.4508	131.104	0.0266543	5366.14	1.09097
7.40542	130.861	0.0258298	5356.2	1.05723
7.35944	130.586	0.0314867	5344.97	1.28877
7.31272	130.331	0.0172932	5334.5	0.70782
7.26984	130.008	0.0194702	5321.31	0.796924
7.22186	129.767	0.0239588	5311.45	0.980646
7.17479	129.419	0.0286853	5297.18	1.1741
7.12778	129.175	0.0272474	5287.21	1.11525
7.07867	128.876	0.0243941	5274.96	0.998463
7.03158	128.558	0.0255464	5261.94	1.04563
6.98289	128.238	0.0208754	5248.83	0.85444
6.93851	127.957	0.0210393	5237.33	0.861151
6.8923	127.669	0.0263418	5225.54	1.07818
6.84447	127.367	0.01895	5213.21	0.775635
6.79847	127.074	0.0219623	5201.22	0.898928
6.75151	126.768	0.0261845	5188.68	1.07175
6.70574	126.449	0.0288131	5175.64	1.17934
6.65813	126.135	0.0185194	5162.77	0.758007
6.61028	125.803	0.0266006	5149.19	1.08877
6.56171	125.487	0.0250645	5136.25	1.0259
6.51435	125.185	0.0184963	5123.9	0.757064
6.46633	124.83	0.0291254	5109.36	1.19212
6.42239	124.559	0.0195821	5098.27	0.801506
6.37576	124.214	0.0191241	5084.16	0.782758
6.32971	123.924	0.0212204	5072.27	0.868563
6.28283	123.57	0.0248696	5057.79	1.01792
6.23331	123.223	0.0224514	5043.56	0.918946
6.18465	122.896	0.0250416	5030.2	1.02497
6.13995	122.59	0.0233848	5017.66	0.957152
6.094	122.207	0.0208516	5002.01	0.853469
6.04627	121.864	0.0207039	4987.98	0.847422
5.99766	121.484	0.0259067	4972.39	1.06037
5.9517	121.173	0.0203472	4959.68	0.832822
5.9046	120.863	0.0246484	4946.99	1.00887
5.86073	120.511	0.0229802	4932.59	0.940591
5.81239	120.158	0.0180776	4918.15	0.739927
5.76638	119.786	0.0223466	4902.91	0.914657
5.72141	119.438	0.0260468	4888.65	1.06611
5.67743	119.118	0.0252849	4875.58	1.03492
5.63085	118.741	0.024794	4860.15	1.01483
5.58471	118.382	0.0209154	4845.44	0.856076
5.53877	117.994	0.0265824	4829.57	1.08803
5.49067	117.636	0.0245626	4814.9	1.00536
5.44495	117.242	0.0190666	4798.77	0.780407
5.40196	116.905	0.0250656	4785	1.02595
5.35562	116.551	0.0235411	4770.51	0.96355
5.30987	116.144	0.0212955	4753.82	0.871637
5.26365	115.763	0.0271144	4738.22	1.10981
5.21732	115.402	0.022688	4723.47	0.928632
5.17338	115.03	0.0197854	4708.23	0.809828
5.12696	114.617	0.0204377	4691.35	0.836525
5.08104	114.213	0.0245034	4674.78	1.00294
5.0348	113.811	0.0189277	4658.34	0.774719
4.98922	113.429	0.0218082	4642.72	0.892621
4.94146	112.995	0.0232586	4624.96	0.951988
4.89747	112.614	0.0238505	4609.35	0.976215
4.85198	112.231	0.0235422	4593.69	0.963594
4.80465	111.798	0.021064	4575.94	0.86216
4.75842	111.377	0.0252014	4558.7	1.03151
4.71008	110.905	0.0178486	4539.41	0.730554
4.66159	110.478	0.0187255	4521.94	0.766443
4.61593	110.041	0.0228592	4504.04	0.935637
4.56789	109.596	0.020045	4485.81	0.820452
4.52373	109.163	0.0212419	4468.08	0.869441
4.47836	108.752	0.0226346	4451.29	0.926447
4.43054	108.284	0.0187636	4432.14	0.768003
4.38444	107.852	0.0194432	4414.45	0.79582
4.33861	107.376	0.0198752	4394.94	0.813503
4.29264	106.907	0.0216383	4375.75	0.885668
4.24617	106.46	0.0175388	4357.46	0.717872
4.20107	105.995	0.0184061	4338.43	0.753372
4.15624	105.546	0.0187018	4320.04	0.765473
4.11015	105.09	0.0190561	4301.4	0.779978
4.0649	104.617	0.0189539	4282.03	0.775794
4.0198	104.126	0.0181223	4261.95	0.741756
3.97367	103.649	0.0166538	4242.42	0.681647
3.92718	103.18	0.0201736	4223.21	0.825714
3.882	102.653	0.0188505	4201.65	0.771562
3.83502	102.16	0.0190704	4181.45	0.780561
3.79136	101.662	0.0173133	4161.07	0.708643
3.74543	101.151	0.0189188	4140.15	0.774358
3.70109	100.68	0.0212164	4120.9	0.8684
3.65468	100.131	0.0197452	4098.41	0.808183
3.60965	99.6304	0.0180559	4077.92	0.739036
3.56407	99.0772	0.0184344	4055.28	0.75453
3.52173	98.5975	0.0179753	4035.65	0.735738
3.47609	98.0862	0.0178348	4014.72	0.729986
3.42887	97.5245	0.0183553	3991.73	0.751293
3.3853	97.0162	0.0188911	3970.92	0.773223
3.33818	96.4271	0.0209336	3946.81	0.856824
3.29433	95.8951	0.0194233	3925.03	0.795005
3.25037	95.3393	0.0194768	3902.28	0.797198
3.208	94.8404	0.0172758	3881.87	0.707108
3.16267	94.2574	0.0161424	3858	0.660718
3.11883	93.6858	0.0152323	3834.61	0.623466
3.0747	93.1224	0.0193935	3811.55	0.793787
3.02871	92.5489	0.0210059	3788.08	0.859783
2.98351	91.9666	0.0126787	3764.24	0.518946
2.93941	91.3765	0.016037	3740.09	0.656405
2.89195	90.7396	0.0168791	3714.02	0.690871
2.84696	90.1311	0.0138926	3689.11	0.568631
2.80312	89.5272	0.013835	3664.39	0.566274
2.75701	88.9231	0.0173818	3639.67	0.711445
2.71318	88.3304	0.0150398	3615.41	0.615587
2.66886	87.6781	0.0150129	3588.71	0.614485
2.62515	87.0467	0.0167289	3562.87	0.684721
2.58256	86.4504	0.0158878	3538.46	0.650298
2.53709	85.8015	0.0163209	3511.9	0.668021
2.49086	85.1033	0.0145299	3483.32	0.594715
2.44725	84.4835	0.0134981	3457.95	0.552485
2.39981	83.7557	0.0157568	3428.17	0.644933
2.35632	83.1469	0.0197394	3403.25	0.807944
2.31163	82.4305	0.01066	3373.92	0.436318
2.26727	81.7638	0.0150523	3346.63	0.616098
2.22277	81.0576	0.0154711	3317.73	0.633242
2.17741	80.3726	0.0153935	3289.69	0.630062
2.1329	79.6461	0.0141158	3259.95	0.577767
2.08846	78.937	0.0140046	3230.93	0.573217
2.04224	78.2059	0.0148573	3201.01	0.608118
2.00103	77.5245	0.0161201	3173.12	0.659802
1.95531	76.7789	0.0145641	3142.6	0.596118
1.90817	75.9746	0.0113398	3109.68	0.464144
1.86324	75.2263	0.0124119	3079.05	0.508026
1.82551	74.5661	0.0140352	3052.03	0.57447
1.77877	73.7725	0.0132578	3019.55	0.542649
1.7339	73.0002	0.0139737	2987.94	0.571952
1.68931	72.2001	0.0139235	2955.19	0.569896
1.64624	71.4543	0.0124019	2924.66	0.507617
1.60201	70.6621	0.0127806	2892.23	0.523117
1.55616	69.8343	0.0116015	2858.35	0.474857
1.51293	69.0581	0.0126142	2826.58	0.516304
1.4706	68.2884	0.0135858	2795.08	0.556073
1.42611	67.4403	0.0130719	2760.37	0.535038
1.37865	66.5483	0.0121501	2723.86	0.497309
1.33628	65.7439	0.0109416	2690.93	0.447845
1.29341	64.9208	0.0125814	2657.24	0.514964
1.24993	64.0569	0.0119752	2621.88	0.49015
1.2056	63.2147	0.0130235	2587.41	0.53306
1.16063	62.2816	0.0125473	2549.22	0.513567
1.11475	61.3834	0.01214	2512.45	0.496894
1.07117	60.5309	0.0110525	2477.56	0.452387
1.02784	59.6084	0.0121111	2439.8	0.495715
0.985854	58.7419	0.0109181	2404.34	0.446884
0.940373	57.7978	0.00998791	2365.69	0.40881
0.899039	56.9647	0.009269	2331.59	0.379385
0.854985	56.0039	0.0108655	2292.27	0.444732
0.812285	55.0882	0.011385	2254.79	0.465992
0.768797	54.1332	0.0109326	2215.7	0.447477
0.727957	53.2575	0.00988526	2179.86	0.404609
0.683081	52.2709	0.00937112	2139.48	0.383565
0.637897	51.2616	0.00946993	2098.16	0.387609
0.593764	50.3223	0.00863394	2059.72	0.353392
0.549965	49.2978	0.0117493	2017.79	0.480903
0.504353	48.2627	0.00996012	1975.42	0.407673
0.461358	47.2099	0.00967799	1932.33	0.396125
0.417229	46.2204	0.00888368	1891.82	0.363614
0.374868	45.2307	0.00880644	1851.31	0.360452
0.331133	44.1457	0.008871	1806.9	0.363095
0.287045	43.1456	0.0105528	1765.97	0.431933
0.243048	42.0456	0.00975433	1720.95	0.39925
0.201224	40.991	0.00873476	1677.78	0.357518
0.156479	39.8935	0.0102567	1632.86	0.419813
0.111861	38.8331	0.0105428	1589.46	0.431522
0.0682658	37.6968	0.00956975	1542.95	0.391695
0.0281598	36.6678	0.00784473	1500.83	0.321089
-2.66416e-05	35.924	0.00869523	1470.39	0.3559