File: data/monolayers/nanoparticles/Ol_CoFe_C/vsm/Backup/rescale/DD67_ZFC_LangevinSAXSscaled.xye
#Executed at: 2018-11-13 00:54:13.1572
#Loaded File	 = ../rawdata/DD172_6_ZFCw_100OE.DAT
#Rescale Factor	 = 0.0244316
#[[Data]]
#T/K	M/kAm-1	sM/kAm-1	M_raw/memu	sM_raw/memu
10.0076	0.116048	0.0080275	4.7499	0.32857
10.0245	0.109501	0.00766967	4.48194	0.313924
10.5749	0.114983	0.00804255	4.7063	0.329186
11.0628	0.113184	0.00868467	4.63267	0.355468
11.5462	0.11077	0.00601236	4.53388	0.246089
12.0512	0.116792	0.00759234	4.78037	0.310758
12.5212	0.123716	0.00708616	5.06378	0.29004
13.0414	0.115425	0.00768021	4.72442	0.314355
13.548	0.108525	0.00658186	4.44199	0.269399
14.0219	0.116096	0.00637173	4.75185	0.260798
14.5165	0.110586	0.00632833	4.52632	0.259022
15.0079	0.123238	0.00691327	5.04418	0.282964
15.507	0.120319	0.00735113	4.92473	0.300886
16.0508	0.117842	0.00885983	4.82334	0.362638
16.5089	0.117863	0.00949355	4.8242	0.388576
17.0269	0.115838	0.00760669	4.74131	0.311346
17.5352	0.111558	0.00772198	4.56611	0.316065
18.0528	0.117059	0.00802361	4.79129	0.328411
18.5051	0.118689	0.00720316	4.85799	0.294829
19.0307	0.122012	0.00763019	4.99399	0.312308
19.5309	0.112967	0.00917068	4.6238	0.375361
20.0321	0.126807	0.00838795	5.19028	0.343323
20.8696	0.114951	0.00776184	4.70501	0.317696
21.0509	0.131168	0.00845103	5.36876	0.345905
21.5052	0.129724	0.00801859	5.30966	0.328205
22.0009	0.126706	0.00844351	5.18613	0.345597
22.5474	0.126417	0.00818556	5.1743	0.335039
23.0357	0.131163	0.00683612	5.36859	0.279806
23.5484	0.130489	0.00832593	5.341	0.340785
24.0085	0.121842	0.00705343	4.98707	0.2887
24.5476	0.129642	0.00745481	5.3063	0.305129
25.0076	0.127763	0.00690276	5.22942	0.282534
25.5581	0.131922	0.00744853	5.39964	0.304872
26.0006	0.128958	0.00762478	5.2783	0.312086
26.5266	0.134565	0.00860416	5.5078	0.352173
27.0556	0.132093	0.00764707	5.40664	0.312998
27.5597	0.137076	0.00795393	5.6106	0.325558
28.01	0.13858	0.00847328	5.67217	0.346816
28.5444	0.135342	0.00787705	5.5396	0.322412
29.0529	0.137376	0.00821896	5.62288	0.336406
29.5072	0.139799	0.00761578	5.72203	0.311718
30.002	0.138558	0.00721181	5.67125	0.295183
31.295	0.139716	0.0086063	5.71865	0.35226
31.5384	0.139418	0.00648426	5.70646	0.265404
32.0569	0.144501	0.00679798	5.91452	0.278245
32.5209	0.143828	0.00750052	5.88695	0.307
33.0388	0.150723	0.00726465	6.16918	0.297346
33.5601	0.152548	0.00699883	6.24386	0.286466
34.0544	0.139529	0.00711442	5.71098	0.291197
34.5555	0.14927	0.00801593	6.1097	0.328096
35.0249	0.152873	0.00682141	6.25717	0.279204
35.5421	0.153996	0.00785117	6.30314	0.321353
36.0545	0.144622	0.00684897	5.91945	0.280332
36.5515	0.152319	0.00813651	6.23451	0.333031
37.0692	0.155394	0.00796229	6.36037	0.3259
37.5181	0.149787	0.00773127	6.13087	0.316445
38.0185	0.150688	0.0077686	6.16773	0.317973
38.5752	0.152049	0.00767915	6.22343	0.314312
39.049	0.148726	0.00612533	6.08745	0.250713
39.5504	0.147647	0.006643	6.04327	0.271901
40.0102	0.15277	0.00721392	6.25297	0.29527
40.5293	0.164145	0.00778106	6.71856	0.318483
41.6761	0.153157	0.00778552	6.26879	0.318665
42.0532	0.170804	0.00776509	6.99111	0.317829
42.5121	0.156735	0.00770684	6.41523	0.315445
43.0034	0.16412	0.00774316	6.71751	0.316932
43.5158	0.156244	0.00836469	6.39517	0.342371
44.0023	0.161176	0.00757261	6.59702	0.309951
44.5687	0.165115	0.00768266	6.75826	0.314455
45.0045	0.163522	0.00809873	6.69303	0.331485
45.5933	0.15959	0.00772851	6.53209	0.316332
46.0704	0.16363	0.00732324	6.69746	0.299744
46.5639	0.159675	0.00850319	6.53557	0.34804
47.0615	0.170997	0.0081394	6.99901	0.33315
47.5588	0.16332	0.00864574	6.68475	0.353875
48.0317	0.170991	0.00583215	6.99874	0.238713
48.5275	0.174653	0.00836041	7.14863	0.342196
49.0497	0.16548	0.00928122	6.77319	0.379885
49.5138	0.166552	0.00853463	6.81705	0.349327
50.0253	0.173773	0.00575576	7.11263	0.235586
50.5146	0.165519	0.00671977	6.77477	0.275043
51.0028	0.167813	0.00727772	6.86866	0.297881
52.1152	0.171877	0.00714272	7.03501	0.292355
52.5419	0.173842	0.00772934	7.11543	0.316366
53.0339	0.176242	0.00740407	7.21368	0.303052
53.5165	0.176873	0.00786696	7.23951	0.321999
54.0006	0.17366	0.00727854	7.10798	0.297914
54.5349	0.175019	0.00793358	7.16363	0.324726
55.0379	0.175178	0.00666633	7.17011	0.272856
55.5284	0.181738	0.00827487	7.43861	0.338695
56.005	0.183118	0.00840593	7.49511	0.344059
56.5702	0.172473	0.00839622	7.05941	0.343662
57.0158	0.180678	0.00796474	7.39525	0.326001
57.5772	0.184578	0.00813681	7.55489	0.333044
58.0603	0.180522	0.00730382	7.38885	0.298949
58.528	0.181357	0.00599447	7.42303	0.245357
59.0519	0.177962	0.00835044	7.28408	0.341788
59.5342	0.184436	0.00698811	7.54908	0.286027
60.0133	0.185724	0.00742384	7.60176	0.303862
60.5322	0.178561	0.00796871	7.30859	0.326163
61.0532	0.184119	0.00786104	7.5361	0.321756
61.5024	0.186931	0.00795733	7.65116	0.325698
62.5424	0.18223	0.00746311	7.45877	0.305469
63.01	0.190572	0.00812609	7.80019	0.332605
63.5003	0.189153	0.00857913	7.74213	0.351148
64.0113	0.186052	0.00766459	7.6152	0.313715
64.5108	0.188956	0.00849785	7.73408	0.347822
65.0189	0.190591	0.00841316	7.801	0.344355
65.5005	0.18659	0.00709046	7.63724	0.290216
66.0529	0.19617	0.00760292	8.02932	0.311191
66.5039	0.190082	0.00699164	7.78015	0.286171
67.0021	0.189777	0.007911	7.76766	0.323801
67.505	0.195768	0.00781351	8.0129	0.319811
68.0076	0.196181	0.0082011	8.02977	0.335675
68.52034	0.192547	0.00816113	7.88106	0.334039
69.0094	0.188712	0.00853674	7.72408	0.349413
69.5156	0.196508	0.00893824	8.04319	0.365847
70.0246	0.197697	0.00856208	8.09185	0.35045
70.5184	0.207015	0.00812652	8.47322	0.332623
71.0247	0.195828	0.0068809	8.01534	0.281639
71.5175	0.200677	0.00823399	8.21383	0.337022
72.0124	0.200767	0.0089941	8.21751	0.368133
72.8473	0.205515	0.00781127	8.41184	0.319719
73.0354	0.206596	0.00984043	8.45609	0.402774
73.5475	0.214332	0.00740245	8.7727	0.302986
74.0464	0.206383	0.00722012	8.44738	0.295523
74.5381	0.199369	0.00819121	8.16026	0.33527
75.0375	0.214903	0.0092763	8.79609	0.379684
75.5916	0.205912	0.00830317	8.42809	0.339853
76.0242	0.209827	0.00789407	8.58831	0.323109
76.515	0.204555	0.00900373	8.37253	0.368527
77.0535	0.208108	0.00761442	8.51796	0.311662
77.5137	0.210492	0.00716728	8.61554	0.293361
78.0964	0.220318	0.00959158	9.01774	0.392589
78.6215	0.212849	0.00839884	8.712	0.343769
79.0392	0.217566	0.00871907	8.9051	0.356876
79.5481	0.214425	0.00812785	8.77654	0.332677
80.1435	0.212242	0.00893798	8.68716	0.365836
80.5616	0.21508	0.00710286	8.80332	0.290724
81.0687	0.21947	0.00841885	8.98301	0.344588
81.545	0.21691	0.00962024	8.87823	0.393762
82.0656	0.220819	0.00712934	9.03825	0.291808
83.4833	0.217921	0.00785021	8.91963	0.321313
83.5589	0.225037	0.0065234	9.21088	0.267006
84.0047	0.229361	0.00748076	9.38787	0.306191
84.5607	0.222512	0.00845658	9.10753	0.346132
85.0403	0.230469	0.00701348	9.43324	0.287066
85.5694	0.229233	0.00729019	9.38262	0.298391
86.0272	0.2328	0.00804798	9.52861	0.329408
86.6062	0.22649	0.00817341	9.27037	0.334542
87.0449	0.225311	0.00906338	9.22209	0.370969
87.5331	0.232487	0.00764266	9.51581	0.312818
88.0462	0.239017	0.00910224	9.7831	0.372559
88.5373	0.240805	0.00717451	9.85628	0.293657
89.0848	0.23569	0.00750288	9.64692	0.307097
89.547	0.241263	0.00786344	9.87501	0.321855
90.0482	0.226789	0.00799472	9.28257	0.327228
90.534	0.247953	0.00861506	10.1488	0.352619
91.0161	0.246825	0.00906292	10.1027	0.37095
91.5101	0.248164	0.00736018	10.1575	0.301256
92.0087	0.241839	0.0082812	9.89859	0.338954
92.5051	0.249096	0.00797498	10.1956	0.32642
93.974	0.256862	0.00776266	10.5135	0.31773
94.0587	0.252445	0.00809189	10.3327	0.331205
94.5368	0.244462	0.00759041	10.006	0.310679
95.0115	0.244878	0.00789501	10.023	0.323147
95.5368	0.24536	0.00809529	10.0427	0.331344
96.0555	0.256821	0.00793461	10.5118	0.324768
96.5463	0.251252	0.00936779	10.2839	0.383429
97.0099	0.256755	0.00799201	10.5091	0.327117
97.5356	0.253638	0.00905675	10.3815	0.370697
98.0322	0.258288	0.0108455	10.5719	0.443913
98.5046	0.264021	0.00845522	10.8065	0.346076
99.0042	0.260536	0.00832745	10.6639	0.340847
99.5459	0.262078	0.00778819	10.727	0.318775
100.008	0.261877	0.00834729	10.7187	0.341659
100.51	0.263009	0.00695223	10.7651	0.284558
101.028	0.267158	0.00895898	10.9349	0.366696
101.52	0.267878	0.00677387	10.9644	0.277258
102.071	0.271955	0.00882937	11.1313	0.361391
102.523	0.259122	0.00838897	10.606	0.343365
103.02	0.275041	0.00776686	11.2576	0.317902
104.208	0.271204	0.0084732	11.1005	0.346813
104.531	0.275705	0.00896823	11.2847	0.367074
105.02	0.277284	0.00691262	11.3494	0.282937
105.526	0.27341	0.00877026	11.1908	0.358971
106.016	0.278264	0.00994512	11.3895	0.407059
106.518	0.276755	0.00969915	11.3277	0.396991
107.01	0.287572	0.00792676	11.7705	0.324446
107.5	0.283787	0.00869964	11.6155	0.356081
108.045	0.280302	0.00848615	11.4729	0.347342
108.574	0.28113	0.00828536	11.5068	0.339124
109.03	0.28557	0.00839619	11.6885	0.34366
109.567	0.293364	0.00854277	12.0075	0.34966
110.043	0.289204	0.00819585	11.8373	0.33546
110.533	0.298722	0.00788288	12.2268	0.32265
111.015	0.293061	0.00994874	11.9951	0.407207
111.518	0.291627	0.00802162	11.9365	0.328329
112.05	0.298943	0.00797263	12.2359	0.326324
112.551	0.290703	0.0083409	11.8986	0.341397
113.022	0.296421	0.00779626	12.1327	0.319105
113.518	0.306944	0.00811921	12.5634	0.332324
114.618	0.302963	0.00908095	12.4004	0.371688
115.035	0.309131	0.00752175	12.6529	0.307869
115.508	0.302625	0.00808889	12.3866	0.331082
116.006	0.313452	0.00839939	12.8298	0.343791
116.529	0.313155	0.0092491	12.8176	0.378571
117.026	0.317808	0.00801896	13.008	0.32822
117.522	0.316673	0.00913785	12.9616	0.374017
118.046	0.32008	0.00767886	13.101	0.3143
118.504	0.320727	0.00893758	13.1275	0.36582
119.019	0.323104	0.00841783	13.2248	0.344546
119.51	0.329459	0.00796115	13.4849	0.325854
120.009	0.327024	0.0080518	13.3853	0.329564
120.503	0.327341	0.00961559	13.3982	0.393571
121.059	0.33797	0.00861984	13.8333	0.352815
121.561	0.332053	0.00908544	13.5911	0.371872
122.055	0.335967	0.00875329	13.7513	0.358276
122.537	0.336403	0.00743801	13.7692	0.304442
123.023	0.336368	0.00810257	13.7677	0.331642
123.515	0.344759	0.00860305	14.1112	0.352127
124.009	0.346882	0.00762914	14.1981	0.312265
125.027	0.351184	0.00843926	14.3741	0.345423
125.509	0.352885	0.0071031	14.4438	0.290734
126.061	0.361171	0.00811786	14.7829	0.332268
126.512	0.359955	0.00733143	14.7331	0.300079
127.055	0.366443	0.00753074	14.9987	0.308237
127.556	0.365929	0.00900072	14.9777	0.368404
128.005	0.360437	0.00933738	14.7529	0.382184
128.522	0.373333	0.00964927	15.2807	0.39495
129.023	0.372386	0.0084201	15.242	0.344639
129.529	0.374729	0.00807375	15.3378	0.330463
130.024	0.385359	0.00879872	15.7729	0.360136
130.5	0.388962	0.00837708	15.9204	0.342878
131.054	0.384858	0.00896657	15.7524	0.367006
131.546	0.395939	0.00905435	16.206	0.370599
132.019	0.399417	0.00755559	16.3484	0.309254
132.561	0.402095	0.00925404	16.458	0.378773
133.005	0.403043	0.00836231	16.4968	0.342273
133.549	0.410062	0.00750535	16.784	0.307198
134.052	0.414811	0.00865973	16.9784	0.354447
134.55	0.41216	0.00848065	16.8699	0.347117
135.404	0.423346	0.00862034	17.3278	0.352835
135.524	0.427075	0.00728227	17.4804	0.298067
136.012	0.422142	0.00814713	17.2785	0.333466
136.503	0.436136	0.00947061	17.8513	0.387637
137.057	0.441241	0.00861612	18.0602	0.352662
137.556	0.448694	0.0093726	18.3653	0.383625
138.031	0.443932	0.00809071	18.1703	0.331157
138.501	0.451057	0.00756924	18.462	0.309813
139.053	0.463606	0.0083851	18.9756	0.343207
139.534	0.461442	0.0100557	18.8871	0.411585
140.029	0.462509	0.00778691	18.9307	0.318722
140.527	0.476734	0.00868997	19.513	0.355685
141.024	0.485958	0.00795879	19.8905	0.325757
141.502	0.489364	0.00742234	20.0299	0.3038
142.0513	0.48898	0.00826994	20.0142	0.338493
142.522	0.504	0.00862095	20.629	0.35286
143.028	0.507585	0.00774457	20.7757	0.316989
143.528	0.514222	0.00934443	21.0474	0.382472
144.014	0.530123	0.00895249	21.6982	0.36643
144.514	0.530963	0.00722696	21.7326	0.295803
145.756	0.555642	0.00922599	22.7427	0.377624
146.027	0.557892	0.00809818	22.8348	0.331463
146.532	0.561438	0.00728434	22.9799	0.298152
147.043	0.57783	0.0070378	23.6509	0.288061
147.546	0.583164	0.00833536	23.8692	0.341171
148.003	0.592418	0.00768723	24.248	0.314642
148.525	0.606927	0.00781302	24.8418	0.319791
149.013	0.60843	0.00902595	24.9034	0.369437
149.542	0.629354	0.00889791	25.7598	0.364196
150.043	0.636477	0.00979383	26.0513	0.400867
150.547	0.645311	0.00841902	26.4129	0.344595
151.048	0.653352	0.00729436	26.742	0.298562
151.544	0.673738	0.00855046	27.5764	0.349975
152.016	0.672923	0.00840792	27.5431	0.34414
152.52	0.694759	0.00893292	28.4368	0.365629
153.013	0.707882	0.0075455	28.974	0.308841
153.505	0.713221	0.00704169	29.1925	0.28822
154.049	0.72407	0.00958312	29.6366	0.392242
154.531	0.743597	0.00750881	30.4358	0.307339
155.015	0.755572	0.00988401	30.9259	0.404558
156.16	0.795436	0.00710489	32.5576	0.290807
156.54	0.808302	0.00882559	33.0842	0.361236
157.015	0.818161	0.0077393	33.4877	0.316774
157.501	0.825684	0.00894198	33.7957	0.366
158.048	0.851946	0.00810381	34.8706	0.331693
158.549	0.87074	0.00865246	35.6398	0.35415
159.033	0.888363	0.00860493	36.3611	0.352204
159.521	0.893164	0.00804515	36.5577	0.329292
160.014	0.909106	0.00919228	37.2102	0.376245
160.533	0.925413	0.00884041	37.8776	0.361843
161.046	0.947513	0.00860246	38.7822	0.352103
161.54	0.968054	0.0090006	39.6229	0.368399
162.025	0.987928	0.00985483	40.4364	0.403363
162.514	1.00359	0.0068375	41.0773	0.279862
163.014	1.03162	0.00808957	42.2247	0.33111
163.521	1.044	0.0083535	42.7315	0.341913
164.046	1.05532	0.0100584	43.1946	0.411695
164.518	1.07729	0.0087104	44.0939	0.356521
165.021	1.09153	0.00881608	44.677	0.360847
165.538	1.11213	0.00837806	45.5199	0.342918
166.646	1.16752	0.00935153	47.7871	0.382763
167.007	1.18327	0.00890781	48.432	0.364601
167.51	1.20372	0.00855458	49.2691	0.350144
168.007	1.22144	0.0099355	49.9943	0.406665
168.501	1.24079	0.00896729	50.7862	0.367036
169.046	1.26109	0.00792762	51.6171	0.324481
169.536	1.29735	0.00882732	53.1013	0.361307
170.008	1.30197	0.00713213	53.2902	0.291922
170.541	1.33031	0.00902322	54.4504	0.369325
171.04	1.35645	0.00879431	55.5203	0.359956
171.518	1.37485	0.00822432	56.2733	0.336626
172.016	1.398	0.00606877	57.2208	0.248398
172.561	1.42575	0.0091515	58.3566	0.374576
173.041	1.44969	0.00855944	59.3366	0.350342
173.526	1.48024	0.00892821	60.587	0.365436
174.092	1.49279	0.0092389	61.1008	0.378153
174.544	1.51319	0.00911476	61.9358	0.373072
175.044	1.54275	0.00890493	63.1457	0.364483
175.544	1.56211	0.00957138	63.938	0.391761
176.006	1.58842	0.00820914	65.0148	0.336004
177.018	1.63241	0.00967912	66.8155	0.396171
177.564	1.6659	0.00724935	68.186	0.29672
178.002	1.68652	0.00757992	69.0303	0.31025
178.516	1.70854	0.00998108	69.9313	0.408531
179.021	1.73254	0.0094144	70.9136	0.385336
179.513	1.74826	0.00883259	71.557	0.361523
180.016	1.78028	0.00848962	72.8677	0.347484
180.554	1.8033	0.00905954	73.81	0.370812
181.056	1.82938	0.00902519	74.8774	0.369406
181.555	1.85218	0.0102146	75.8106	0.418087
182.034	1.87799	0.00845673	76.867	0.346138
182.53	1.90764	0.00912174	78.0807	0.373357
183.027	1.92491	0.00936062	78.7874	0.383135
183.525	1.94912	0.00823999	79.7784	0.337267
184.006	1.9737	0.0093552	80.7846	0.382913
184.56	1.99685	0.0103173	81.732	0.422291
185.054	2.02201	0.00974062	82.7617	0.398689
185.549	2.04177	0.00851885	83.5708	0.348681
186.032	2.07756	0.0081984	85.0356	0.335565
186.541	2.08347	0.0103579	85.2776	0.423956
187.498	2.14286	0.00956651	87.7085	0.391562
187.556	2.13638	0.00885142	87.4432	0.362293
188.054	2.16413	0.00783957	88.579	0.320878
188.543	2.17777	0.00833354	89.1372	0.341096
189.051	2.20629	0.008336	90.3047	0.341197
189.537	2.22786	0.00919	91.1876	0.376151
190.009	2.23994	0.00911945	91.6819	0.373264
190.552	2.27478	0.00858597	93.1077	0.351428
191.044	2.28291	0.0100082	93.4408	0.409643
191.527	2.30678	0.0080214	94.4179	0.32832
192.005	2.32486	0.00898002	95.1579	0.367557
192.502	2.34175	0.0100996	95.8489	0.413382
193.066	2.37369	0.00991933	97.1563	0.406003
193.514	2.38079	0.00913396	97.4468	0.373858
194.023	2.41116	0.00895624	98.69	0.366584
194.518	2.41369	0.00929177	98.7938	0.380317
195.004	2.44098	0.00974159	99.9107	0.398728
195.501	2.46424	0.00947175	100.863	0.387684
196.003	2.47693	0.00981864	101.382	0.401882
196.502	2.49385	0.00716979	102.075	0.293463
197.005	2.51397	0.00770434	102.898	0.315343
197.877	2.54779	0.00711992	104.283	0.291422
198.046	2.55858	0.00978842	104.724	0.400645
198.545	2.56462	0.00995084	104.971	0.407293
199.026	2.58503	0.00961867	105.807	0.393697
199.527	2.59522	0.00890376	106.224	0.364435
200.005	2.61209	0.00934666	106.914	0.382564
200.5	2.62232	0.0100899	107.333	0.412984
201.001	2.63252	0.00969759	107.75	0.396928
201.515	2.65047	0.0072386	108.485	0.296279
202.005	2.66195	0.0102089	108.955	0.417854
202.508	2.67049	0.00986868	109.305	0.40393
203.026	2.69519	0.0097764	110.315	0.400153
203.549	2.70249	0.0107815	110.614	0.441294
204.05	2.70971	0.0109092	110.91	0.446518
204.539	2.7198	0.00937354	111.323	0.383664
205.026	2.7289	0.00945477	111.695	0.386989
205.564	2.74805	0.00869664	112.479	0.355958
206.004	2.75478	0.00824822	112.755	0.337604
206.549	2.75807	0.00934872	112.889	0.382648
207.026	2.76427	0.0093592	113.143	0.383077
208.269	2.79385	0.00917204	114.354	0.375416
208.518	2.79385	0.00929738	114.354	0.380546
209.009	2.80246	0.0094005	114.706	0.384767
209.532	2.81135	0.0117273	115.07	0.480005
210.037	2.81552	0.008776	115.241	0.359206
210.528	2.82585	0.00920766	115.664	0.376874
211.03	2.83016	0.00767914	115.84	0.314311
211.517	2.83245	0.0104953	115.934	0.429579
212.001	2.84052	0.00830076	116.264	0.339754
212.535	2.83979	0.00960858	116.234	0.393284
213.019	2.84696	0.00903709	116.528	0.369893
213.508	2.84774	0.0102102	116.56	0.417908
214.05	2.85129	0.00769517	116.705	0.314967
214.553	2.84657	0.00953986	116.511	0.390471
215.031	2.85303	0.00959445	116.776	0.392706
215.52	2.86156	0.0096596	117.125	0.395372
216.015	2.85681	0.0114795	116.931	0.469864
216.503	2.85947	0.00911964	117.04	0.373272
217.05	2.85397	0.00986225	116.814	0.403667
217.551	2.85302	0.00886635	116.776	0.362904
218.796	2.8612	0.00904011	117.11	0.370017
219.029	2.86128	0.00994166	117.114	0.406917
219.5	2.85603	0.0110224	116.899	0.451152
220.034	2.85406	0.00941944	116.818	0.385543
220.518	2.85393	0.00886683	116.813	0.362924
221.017	2.83822	0.00991787	116.17	0.405943
221.556	2.85857	0.0088376	117.003	0.361727
222.017	2.85711	0.00898896	116.943	0.367923
222.523	2.85098	0.00905347	116.692	0.370563
223.003	2.84329	0.00875187	116.377	0.358219
223.553	2.8399	0.00909862	116.238	0.372411
224.051	2.83439	0.00943722	116.013	0.38627
224.545	2.83429	0.00935277	116.009	0.382814
225.026	2.83128	0.0105252	115.886	0.4308
225.509	2.8186	0.0100611	115.367	0.411805
226.018	2.82889	0.00935504	115.788	0.382907
226.526	2.81866	0.00983359	115.369	0.402494
227.062	2.81682	0.00955181	115.294	0.390961
227.508	2.80696	0.00926364	114.89	0.379166
228.018	2.80162	0.00920247	114.672	0.376662
229.121	2.79697	0.00984969	114.481	0.403153
229.522	2.79151	0.00970961	114.258	0.397419
230.054	2.77281	0.00856562	113.492	0.350595
230.541	2.77445	0.00917648	113.56	0.375598
231.016	2.7706	0.00968679	113.402	0.396485
231.509	2.76411	0.00895893	113.137	0.366694
232.061	2.76382	0.0109078	113.124	0.446463
232.501	2.77002	0.00905933	113.379	0.370803
233.05	2.7479	0.00923996	112.473	0.378196
233.523	2.74581	0.0111117	112.388	0.454806
234.008	2.73108	0.00992788	111.784	0.406353
234.533	2.72401	0.00889127	111.495	0.363924
235.054	2.73688	0.00863887	112.022	0.353593
235.525	2.71532	0.00890739	111.139	0.364584
236.017	2.70871	0.00871636	110.869	0.356765
236.551	2.69748	0.00905335	110.409	0.370558
237.013	2.69983	0.0102216	110.506	0.418376
237.524	2.69455	0.00887803	110.289	0.363382
238.054	2.67841	0.00836008	109.629	0.342182
238.559	2.67256	0.0104413	109.389	0.427366
239.593	2.65081	0.00835764	108.499	0.342082
240.042	2.65047	0.00914393	108.485	0.374266
240.53	2.64691	0.0107989	108.339	0.442003
241.012	2.6265	0.00897405	107.504	0.367312
241.553	2.63366	0.0100944	107.797	0.41317
242.05	2.609	0.0115855	106.788	0.474201
242.553	2.62456	0.0101121	107.425	0.413894
243.044	2.59673	0.00824078	106.285	0.337299
243.533	2.59451	0.0122849	106.195	0.502829
244.012	2.58975	0.00900234	106	0.36847
244.507	2.57921	0.0113585	105.569	0.464908
245.009	2.56747	0.00928905	105.088	0.380206
245.544	2.56081	0.00925973	104.815	0.379005
246.003	2.55329	0.00948467	104.507	0.388212
246.551	2.55064	0.010045	104.399	0.411148
247.025	2.52973	0.0100906	103.543	0.413012
247.516	2.53329	0.00994181	103.689	0.406923
248.001	2.51381	0.0108971	102.892	0.446024
248.5	2.51054	0.00981763	102.758	0.401841
249.053	2.49647	0.00998133	102.182	0.408541
250.023	2.49313	0.00791783	102.045	0.324081
250.518	2.47653	0.0110534	101.366	0.452423
251.019	2.46703	0.00855492	100.977	0.350157
251.525	2.45347	0.00968462	100.422	0.396396
252.018	2.45981	0.0109107	100.681	0.44658
252.529	2.44064	0.0100294	99.8966	0.410508
253.029	2.42779	0.0105859	99.3705	0.433288
253.549	2.43952	0.00930022	99.8507	0.380663
254.023	2.41424	0.0101789	98.8162	0.416629
254.536	2.40333	0.0108452	98.3694	0.443899
255.021	2.39793	0.00960492	98.1485	0.393134
255.501	2.39221	0.00860739	97.9142	0.352305
256.037	2.38228	0.0110389	97.5078	0.451829
256.538	2.37145	0.00878167	97.0646	0.359438
257.035	2.36414	0.00911497	96.7653	0.373081
257.529	2.35857	0.0104657	96.5376	0.428365
258.017	2.35698	0.00944069	96.4725	0.386412
258.506	2.34803	0.0097743	96.1061	0.400067
259.044	2.33798	0.00927944	95.6946	0.379812
259.551	2.32266	0.0106822	95.0676	0.437229
260.403	2.32452	0.00809213	95.144	0.331215
260.521	2.30716	0.00934032	94.4333	0.382304
261.054	2.30363	0.00932497	94.2888	0.381676
261.544	2.30646	0.00980132	94.4044	0.401173
262.019	2.28423	0.00921726	93.4946	0.377267
262.502	2.28392	0.00918677	93.4822	0.376019
263.06	2.26131	0.0105209	92.5566	0.430627
263.537	2.2593	0.0102944	92.4743	0.421354
264.019	2.26133	0.0118431	92.5574	0.484744
264.509	2.25285	0.00767232	92.2103	0.314032
265.008	2.23539	0.0118821	91.4956	0.48634
265.507	2.23111	0.00997684	91.3204	0.408357
266.057	2.21657	0.00998508	90.7252	0.408695
266.503	2.21883	0.0101784	90.8178	0.416609
267.053	2.20066	0.00946749	90.0742	0.387509
267.524	2.20697	0.0103346	90.3325	0.423001
268.017	2.20344	0.00906203	90.1878	0.370913
268.508	2.18301	0.00904483	89.3518	0.370209
269.002	2.17454	0.010008	89.0049	0.409633
269.523	2.17927	0.00898121	89.1985	0.367606
270.762	2.15488	0.0109115	88.2003	0.446615
271.052	2.15583	0.0102099	88.2391	0.417896
271.548	2.14204	0.00998796	87.6747	0.408812
272.05	2.12916	0.0091946	87.1478	0.37634
272.548	2.11651	0.0113963	86.6297	0.466455
273.056	2.10751	0.00888602	86.2615	0.363709
273.551	2.10617	0.0088818	86.2067	0.363537
274.043	2.10501	0.0108953	86.1591	0.44595
274.534	2.11126	0.00875661	86.4149	0.358413
275.023	2.09079	0.0105727	85.577	0.432746
275.52	2.08161	0.00929218	85.2013	0.380334
276.021	2.06499	0.0104319	84.5211	0.426984
276.506	2.07088	0.0101278	84.7624	0.414535
277.049	2.05933	0.00948966	84.2896	0.388417
277.553	2.05132	0.0120461	83.9614	0.493053
278.013	2.04212	0.0103358	83.5849	0.42305
278.543	2.03189	0.010082	83.1664	0.412662
279.032	2.036	0.0113726	83.3346	0.465485
279.501	2.0377	0.00927559	83.4042	0.379655
280.061	2.01422	0.00929351	82.4429	0.380388
281.154	2.01385	0.0104338	82.428	0.427061
281.526	1.98886	0.0108795	81.405	0.445303
282.035	1.98795	0.0107877	81.3676	0.441544
282.526	1.97081	0.0095038	80.6663	0.388995
283.036	1.96764	0.00938457	80.5366	0.384115
283.508	1.96365	0.008877	80.3733	0.36334
284.002	1.9605	0.00985596	80.2443	0.40341
284.565	1.94431	0.00957368	79.5815	0.391856
285.008	1.95603	0.00881694	80.0614	0.360882
285.511	1.93663	0.00898317	79.2675	0.367686
286.013	1.93298	0.00947526	79.118	0.387827
286.504	1.92972	0.0102906	78.9846	0.421201
287.052	1.92652	0.00939066	78.8535	0.384365
287.547	1.91015	0.00893304	78.1833	0.365634
288.041	1.89892	0.0115938	77.7237	0.47454
288.536	1.89874	0.0106073	77.7166	0.434163
289.037	1.87476	0.00846309	76.7347	0.346398
289.506	1.88293	0.0103864	77.0694	0.425119
290.051	1.86361	0.00988903	76.2783	0.404763
290.53	1.85948	0.0112352	76.1096	0.459861
291.592	1.86927	0.00972246	76.5102	0.397945
292.023	1.82563	0.00993914	74.7241	0.406814
292.523	1.85185	0.0102894	75.7972	0.421151
293.025	1.84798	0.0112524	75.6388	0.460566
293.517	1.82554	0.00954623	74.7204	0.390732
294.031	1.82059	0.0116847	74.5178	0.478262
294.559	1.80953	0.00984135	74.0652	0.402811
295.001	1.8085	0.0119906	74.0228	0.490781
295.528	1.81245	0.0108709	74.1844	0.444953
296.042	1.79357	0.0108912	73.4118	0.445784
296.521	1.78512	0.00991735	73.0657	0.405922
297.026	1.78425	0.0108173	73.0301	0.442757
297.529	1.7758	0.00947927	72.6845	0.387991
298.025	1.77895	0.0112409	72.8133	0.460095
298.504	1.76989	0.00989038	72.4426	0.404818
299.059	1.7569	0.0102557	71.9106	0.419772
299.537	1.75302	0.0108998	71.7522	0.446135
300.022	1.73928	0.00986676	71.1896	0.403851
300.507	1.74377	0.00975935	71.3732	0.399455
301.007	1.74465	0.00909718	71.4093	0.372352
301.991	1.71399	0.0110692	70.1547	0.453068
302.043	1.72979	0.0107307	70.801	0.439214
302.52	1.71753	0.0104438	70.2992	0.427472
303.057	1.72018	0.0102635	70.4079	0.420091
303.544	1.72597	0.0101275	70.6448	0.414522
304.053	1.70018	0.00870149	69.5892	0.356156
304.51	1.69604	0.0113883	69.42	0.466127
305.025	1.68921	0.0103126	69.1404	0.422101
305.506	1.68584	0.00935824	69.0022	0.383038
306.056	1.68065	0.00929534	68.7899	0.380463
306.53	1.68654	0.00993796	69.031	0.406766
307.02	1.6654	0.010196	68.1656	0.417328
307.556	1.68059	0.0114818	68.7873	0.469957
308.039	1.65283	0.0115103	67.6513	0.471123
308.531	1.65853	0.00899082	67.8844	0.367999
309.028	1.62886	0.0113541	66.67	0.464729
309.508	1.64394	0.0104689	67.2873	0.428496
310.031	1.64329	0.00996207	67.2607	0.407753
310.534	1.62792	0.0106964	66.6317	0.437811
311.053	1.62281	0.0108286	66.4225	0.443219
311.56	1.60683	0.0133611	65.7684	0.546879
312.403	1.61049	0.0106356	65.9183	0.435322
312.516	1.61733	0.0129299	66.1983	0.529226
313.006	1.59909	0.0100802	65.4515	0.412589
313.559	1.5874	0.00982983	64.9731	0.40234
314.022	1.60446	0.012426	65.6712	0.508601
314.51	1.58368	0.00981234	64.8208	0.401624
315.002	1.58577	0.0111665	64.9066	0.457049
315.551	1.5712	0.0116253	64.31	0.475831
316.027	1.56486	0.0102761	64.0507	0.420606
316.544	1.56728	0.0108512	64.1496	0.444145
317.011	1.55693	0.009499	63.726	0.388799
317.509	1.55553	0.0112792	63.6687	0.461664
318.026	1.54144	0.012194	63.0918	0.499106
318.516	1.53804	0.00843375	62.9527	0.345198
319.045	1.52988	0.0124782	62.6188	0.510739
319.551	1.51396	0.0116701	61.9673	0.477661
320.095	1.52813	0.00909898	62.5471	0.372426
320.525	1.51247	0.00857957	61.9061	0.351166
321.001	1.52064	0.0109256	62.2404	0.447189
321.516	1.50448	0.0126085	61.5792	0.516073
322.781	1.48674	0.00990282	60.8529	0.405327
323.046	1.49475	0.0114398	61.1809	0.468238
323.502	1.49172	0.0106119	61.057	0.434352
324.035	1.46524	0.0120156	59.9731	0.491805
324.509	1.46845	0.0132041	60.1044	0.54045
325.041	1.46022	0.0123794	59.7676	0.506696
325.562	1.46921	0.0117412	60.1354	0.480574
326.045	1.47327	0.0115444	60.3019	0.47252
326.517	1.45389	0.0108896	59.5083	0.445717
327.023	1.45856	0.0118813	59.6998	0.486309
327.524	1.44163	0.0114927	59.0065	0.470403
328.051	1.44357	0.0104994	59.086	0.429746
328.51	1.44896	0.00951869	59.3065	0.389605
329.009	1.42779	0.00968267	58.44	0.396317
329.504	1.43084	0.0106622	58.5651	0.436408
330.048	1.4282	0.0104169	58.4568	0.426371
330.538	1.42366	0.00950323	58.2712	0.388972
331.023	1.4139	0.0119254	57.8718	0.488112
331.522	1.41525	0.00940725	57.9271	0.385044
332.056	1.39413	0.0117156	57.0624	0.479525
333.263	1.38972	0.0134748	56.882	0.551531
333.506	1.3851	0.0106146	56.693	0.434462
334.016	1.39079	0.0108218	56.9258	0.442942
334.528	1.38939	0.0113986	56.8684	0.466551
335.022	1.38134	0.0108121	56.5388	0.442547
335.562	1.36817	0.0107917	55.9998	0.441709
336.01	1.37937	0.0109993	56.4584	0.450208
336.533	1.36205	0.00844835	55.7495	0.345795
337.02	1.37489	0.0105625	56.2752	0.432329
337.518	1.34648	0.0109336	55.112	0.447517
338.01	1.36319	0.00941811	55.7959	0.385488
338.506	1.33553	0.00852705	54.664	0.349017
339.022	1.33469	0.0112143	54.6296	0.459008
339.52	1.33036	0.012263	54.4522	0.501929
340.033	1.3342	0.00936964	54.6093	0.383504
340.525	1.32428	0.0125133	54.2035	0.512174
341.054	1.30873	0.0118262	53.567	0.484054
341.533	1.32406	0.0130088	54.1943	0.532459
342.011	1.31615	0.0097548	53.8708	0.399269
342.559	1.31398	0.0109629	53.7819	0.448719
343.647	1.29834	0.0105983	53.1419	0.433794
344.014	1.31251	0.0113619	53.7215	0.465046
344.549	1.29023	0.0116458	52.8096	0.476669
345.047	1.29834	0.00836622	53.1417	0.342434
345.546	1.27821	0.00923637	52.3178	0.378049
346.013	1.29388	0.0131895	52.9591	0.539854
346.552	1.27461	0.00947999	52.1705	0.388021
347.006	1.2793	0.0123891	52.3625	0.507093
347.501	1.27068	0.0114866	52.0094	0.470151
348.016	1.262	0.0106366	51.6542	0.435363
348.508	1.26373	0.0112088	51.7253	0.458783
349.002	1.24472	0.012076	50.9472	0.494275
349.503	1.24293	0.0126903	50.8736	0.519421
349.752	1.24278	0.0117481	50.8675	0.480856