File: data/monolayers/nanoparticles/Ac_CoFe_C/xrd/AH11.dat
 5.013  4654
 5.065  4553
 5.117  4453
 5.169  4544
 5.221  4508
 5.273  4496
 5.325  4450
 5.377  4381
 5.429  4428
 5.481  4453
 5.533  4249
 5.585  4342
 5.637  4382
 5.689  4327
 5.741  4235
 5.793  4348
 5.845  4266
 5.897  4204
 5.949  4247
 6.001  4176
 6.053  4093
 6.105  4043
 6.157  4060
 6.209  4027
 6.261  4026
 6.313  3965
 6.365  4043
 6.417  4005
 6.469  3954
 6.521  3902
 6.573  3854
 6.625  3885
 6.677  3874
 6.729  3689
 6.781  3755
 6.833  3862
 6.885  3720
 6.937  3707
 6.989  3704
 7.041  3631
 7.093  3674
 7.145  3470
 7.197  3407
 7.249  3447
 7.301  3544
 7.353  3478
 7.405  3424
 7.457  3504
 7.509  3405
 7.561  3445
 7.613  3391
 7.665  3328
 7.717  3434
 7.769  3309
 7.821  3223
 7.873  3225
 7.925  3217
 7.977  3248
 8.029  3220
 8.081  3133
 8.133  3147
 8.185  3091
 8.237  3070
 8.289  3126
 8.341  3111
 8.393  3159
 8.445  3047
 8.497  3096
 8.549  3093
 8.601  3000
 8.653  2986
 8.705  2999
 8.757  3037
 8.809  3015
 8.861  3041
 8.913  3012
 8.965  2924
 9.017  3005
 9.069  2910
 9.121  2870
 9.173  2943
 9.225  2975
 9.277  2905
 9.329  2921
 9.381  2906
 9.433  2914
 9.485  2970
 9.537  2943
 9.589  2844
 9.641  2890
 9.693  2773
 9.745  2805
 9.797  2760
 9.849  2766
 9.901  2825
 9.953  2806
 10.005  2798
 10.057  2739
 10.109  2764
 10.161  2856
 10.213  2725
 10.265  2713
 10.317  2829
 10.369  2687
 10.421  2736
 10.473  2702
 10.525  2704
 10.577  2732
 10.629  2763
 10.681  2756
 10.733  2542
 10.785  2641
 10.837  2683
 10.889  2673
 10.941  2618
 10.993  2599
 11.045  2606
 11.097  2700
 11.149  2639
 11.201  2610
 11.253  2545
 11.305  2627
 11.357  2595
 11.409  2599
 11.461  2522
 11.513  2516
 11.565  2538
 11.617  2620
 11.669  2574
 11.721  2572
 11.773  2507
 11.825  2562
 11.877  2526
 11.929  2519
 11.981  2651
 12.033  2491
 12.085  2560
 12.137  2544
 12.189  2582
 12.241  2544
 12.293  2538
 12.345  2499
 12.397  2565
 12.449  2560
 12.501  2595
 12.553  2569
 12.605  2577
 12.657  2545
 12.709  2478
 12.761  2472
 12.813  2540
 12.865  2441
 12.917  2495
 12.969  2585
 13.021  2529
 13.073  2494
 13.125  2535
 13.177  2456
 13.229  2524
 13.281  2526
 13.333  2492
 13.385  2459
 13.437  2462
 13.489  2511
 13.541  2580
 13.593  2546
 13.645  2533
 13.697  2597
 13.749  2567
 13.801  2551
 13.853  2502
 13.905  2534
 13.957  2594
 14.009  2534
 14.061  2549
 14.113  2563
 14.165  2587
 14.217  2545
 14.269  2592
 14.321  2628
 14.373  2543
 14.425  2601
 14.477  2652
 14.529  2634
 14.581  2594
 14.633  2582
 14.685  2623
 14.737  2635
 14.789  2564
 14.841  2554
 14.893  2700
 14.945  2645
 14.997  2610
 15.049  2693
 15.101  2630
 15.153  2679
 15.205  2722
 15.257  2696
 15.309  2715
 15.361  2737
 15.413  2614
 15.465  2622
 15.517  2668
 15.569  2600
 15.621  2625
 15.673  2662
 15.725  2639
 15.777  2695
 15.829  2589
 15.881  2611
 15.933  2556
 15.985  2744
 16.037  2665
 16.089  2687
 16.141  2709
 16.193  2678
 16.245  2634
 16.297  2766
 16.349  2768
 16.401  2674
 16.453  2771
 16.505  2639
 16.557  2762
 16.609  2700
 16.661  2786
 16.713  2816
 16.765  2801
 16.817  2845
 16.869  2853
 16.921  2833
 16.973  2915
 17.025  2921
 17.077  2849
 17.129  2819
 17.181  2906
 17.233  2913
 17.285  2906
 17.337  2951
 17.389  3055
 17.441  3094
 17.493  3050
 17.545  3044
 17.597  3018
 17.649  3027
 17.701  3037
 17.753  3060
 17.805  3177
 17.857  3242
 17.909  3249
 17.961  3292
 18.013  3260
 18.065  3266
 18.117  3348
 18.169  3436
 18.221  3369
 18.273  3558
 18.325  3515
 18.377  3466
 18.429  3449
 18.481  3344
 18.533  3324
 18.585  3359
 18.637  3484
 18.689  3435
 18.741  3427
 18.793  3362
 18.845  3328
 18.897  3306
 18.949  3390
 19.001  3313
 19.053  3339
 19.105  3319
 19.157  3305
 19.209  3421
 19.261  3292
 19.313  3320
 19.365  3294
 19.417  3344
 19.469  3276
 19.521  3393
 19.573  3228
 19.625  3355
 19.677  3439
 19.729  3314
 19.781  3431
 19.833  3385
 19.885  3384
 19.937  3311
 19.989  3402
 20.041  3477
 20.093  3400
 20.145  3491
 20.197  3532
 20.249  3401
 20.301  3514
 20.353  3375
 20.405  3460
 20.457  3514
 20.509  3388
 20.561  3566
 20.613  3424
 20.665  3460
 20.717  3504
 20.769  3465
 20.821  3426
 20.873  3576
 20.925  3544
 20.977  3494
 21.029  3542
 21.081  3552
 21.133  3519
 21.185  3595
 21.237  3580
 21.289  3566
 21.341  3515
 21.393  3531
 21.445  3571
 21.497  3601
 21.549  3583
 21.601  3675
 21.653  3592
 21.705  3675
 21.757  3535
 21.809  3616
 21.861  3645
 21.913  3536
 21.965  3585
 22.017  3655
 22.069  3632
 22.121  3608
 22.173  3608
 22.225  3527
 22.277  3627
 22.329  3635
 22.381  3687
 22.433  3635
 22.485  3662
 22.537  3631
 22.589  3619
 22.641  3621
 22.693  3675
 22.745  3659
 22.797  3573
 22.849  3544
 22.901  3694
 22.953  3689
 23.005  3619
 23.057  3701
 23.109  3568
 23.161  3609
 23.213  3620
 23.265  3707
 23.317  3734
 23.369  3543
 23.421  3498
 23.473  3587
 23.525  3660
 23.577  3714
 23.629  3586
 23.681  3742
 23.733  3552
 23.785  3639
 23.837  3609
 23.889  3699
 23.941  3528
 23.993  3606
 24.045  3611
 24.097  3639
 24.149  3595
 24.201  3592
 24.253  3599
 24.305  3597
 24.357  3643
 24.409  3668
 24.461  3638
 24.513  3655
 24.565  3582
 24.617  3609
 24.669  3579
 24.721  3694
 24.773  3743
 24.825  3660
 24.877  3535
 24.929  3646
 24.981  3658
 25.033  3713
 25.085  3669
 25.137  3536
 25.189  3672
 25.241  3535
 25.293  3660
 25.345  3581
 25.397  3607
 25.449  3536
 25.501  3639
 25.553  3641
 25.605  3589
 25.657  3566
 25.709  3664
 25.761  3721
 25.813  3613
 25.865  3674
 25.917  3624
 25.969  3620
 26.021  3590
 26.073  3635
 26.125  3586
 26.177  3514
 26.229  3678
 26.281  3678
 26.333  3551
 26.385  3553
 26.437  3634
 26.489  3535
 26.541  3536
 26.593  3569
 26.645  3583
 26.697  3499
 26.749  3548
 26.801  3580
 26.853  3592
 26.905  3621
 26.957  3625
 27.009  3521
 27.061  3596
 27.113  3589
 27.165  3573
 27.217  3648
 27.269  3632
 27.321  3569
 27.373  3595
 27.425  3485
 27.477  3545
 27.529  3567
 27.581  3609
 27.633  3520
 27.685  3575
 27.737  3550
 27.789  3662
 27.841  3521
 27.893  3544
 27.945  3638
 27.997  3542
 28.049  3437
 28.101  3441
 28.153  3545
 28.205  3553
 28.257  3490
 28.309  3657
 28.361  3489
 28.413  3483
 28.465  3507
 28.517  3492
 28.569  3516
 28.621  3615
 28.673  3538
 28.725  3540
 28.777  3566
 28.829  3587
 28.881  3531
 28.933  3534
 28.985  3614
 29.037  3573
 29.089  3632
 29.141  3499
 29.193  3552
 29.245  3655
 29.297  3625
 29.349  3682
 29.401  3707
 29.453  3757
 29.505  3818
 29.557  3754
 29.609  3888
 29.661  3863
 29.713  3908
 29.765  4023
 29.817  4088
 29.869  4021
 29.921  4074
 29.973  4176
 30.025  4204
 30.077  4204
 30.129  4191
 30.181  4224
 30.233  4190
 30.285  4073
 30.337  4156
 30.389  4157
 30.441  3970
 30.493  3971
 30.545  3907
 30.597  3878
 30.649  3727
 30.701  3720
 30.753  3663
 30.805  3670
 30.857  3567
 30.909  3536
 30.961  3449
 31.013  3481
 31.065  3525
 31.117  3368
 31.169  3445
 31.221  3430
 31.273  3336
 31.325  3241
 31.377  3306
 31.429  3320
 31.481  3312
 31.533  3287
 31.585  3212
 31.637  3282
 31.689  3283
 31.741  3291
 31.793  3196
 31.845  3221
 31.897  3344
 31.949  3173
 32.001  3213
 32.053  3221
 32.105  3231
 32.157  3258
 32.209  3183
 32.261  3302
 32.313  3217
 32.365  3225
 32.417  3182
 32.469  3195
 32.521  3161
 32.573  3138
 32.625  3221
 32.677  3154
 32.729  3151
 32.781  3151
 32.833  3162
 32.885  3077
 32.937  3142
 32.989  3202
 33.041  3056
 33.093  3073
 33.145  3083
 33.197  3125
 33.249  3155
 33.301  3061
 33.353  3030
 33.405  3144
 33.457  3083
 33.509  3087
 33.561  3107
 33.613  3151
 33.665  3158
 33.717  3107
 33.769  3097
 33.821  3226
 33.873  3068
 33.925  3150
 33.977  3188
 34.029  3116
 34.081  3077
 34.133  3226
 34.185  3204
 34.237  3323
 34.289  3328
 34.341  3273
 34.393  3229
 34.445  3321
 34.497  3377
 34.549  3399
 34.601  3413
 34.653  3530
 34.705  3548
 34.757  3670
 34.809  3762
 34.861  3857
 34.913  4037
 34.965  4234
 35.017  4281
 35.069  4463
 35.121  4513
 35.173  4623
 35.225  4767
 35.277  4966
 35.329  4814
 35.381  5033
 35.433  5003
 35.485  5072
 35.537  5018
 35.589  4933
 35.641  4720
 35.693  4705
 35.745  4565
 35.797  4482
 35.849  4463
 35.901  4166
 35.953  4036
 36.005  3883
 36.057  3731
 36.109  3656
 36.161  3467
 36.213  3390
 36.265  3362
 36.317  3190
 36.369  3179
 36.421  3028
 36.473  2971
 36.525  3006
 36.577  2932
 36.629  2868
 36.681  2867
 36.733  2871
 36.785  2882
 36.837  2930
 36.889  2905
 36.941  2993
 36.993  2845
 37.045  2869
 37.097  2897
 37.149  2768
 37.201  2840
 37.253  2757
 37.305  2661
 37.357  2734
 37.409  2666
 37.461  2616
 37.513  2589
 37.565  2560
 37.617  2518
 37.669  2502
 37.721  2431
 37.773  2416
 37.825  2473
 37.877  2372
 37.929  2350
 37.981  2339
 38.033  2344
 38.085  2243
 38.137  2335
 38.189  2285
 38.241  2305
 38.293  2304
 38.345  2319
 38.397  2315
 38.449  2306
 38.501  2284
 38.553  2368
 38.605  2238
 38.657  2231
 38.709  2288
 38.761  2222
 38.813  2270
 38.865  2220
 38.917  2253
 38.969  2145
 39.021  2265
 39.073  2247
 39.125  2299
 39.177  2230
 39.229  2206
 39.281  2324
 39.333  2198
 39.385  2261
 39.437  2248
 39.489  2268
 39.541  2204
 39.593  2209
 39.645  2180
 39.697  2148
 39.749  2207
 39.801  2162
 39.853  2226
 39.905  2158
 39.957  2219
 40.009  2190
 40.061  2208
 40.113  2153
 40.165  2257
 40.217  2219
 40.269  2192
 40.321  2165
 40.373  2236
 40.425  2203
 40.477  2228
 40.529  2172
 40.581  2204
 40.633  2230
 40.685  2184
 40.737  2204
 40.789  2203
 40.841  2232
 40.893  2229
 40.945  2215
 40.997  2289
 41.049  2266
 41.101  2304
 41.153  2204
 41.205  2202
 41.257  2220
 41.309  2184
 41.361  2228
 41.413  2196
 41.465  2228
 41.517  2270
 41.569  2212
 41.621  2268
 41.673  2299
 41.725  2306
 41.777  2252
 41.829  2157
 41.881  2195
 41.933  2213
 41.985  2169
 42.037  2204
 42.089  2231
 42.141  2183
 42.193  2177
 42.245  2207
 42.297  2183
 42.349  2249
 42.401  2280
 42.453  2355
 42.505  2379
 42.557  2428
 42.609  2503
 42.661  2590
 42.713  2635
 42.765  2757
 42.817  2760
 42.869  2750
 42.921  2845
 42.973  2860
 43.025  2898
 43.077  2924
 43.129  2863
 43.181  2802
 43.233  2836
 43.285  2747
 43.337  2628
 43.389  2694
 43.441  2555
 43.493  2506
 43.545  2477
 43.597  2427
 43.649  2368
 43.701  2232
 43.753  2209
 43.805  2266
 43.857  2200
 43.909  2180
 43.961  2183
 44.013  2079
 44.065  2066
 44.117  2068
 44.169  2000
 44.221  2036
 44.273  1996
 44.325  2022
 44.377  2059
 44.429  2091
 44.481  1996
 44.533  2031
 44.585  2004
 44.637  2001
 44.689  2005
 44.741  2153
 44.793  1965
 44.845  2017
 44.897  2017
 44.949  2065
 45.001  1992
 45.053  2007
 45.105  1999
 45.157  2039
 45.209  1999
 45.261  1999
 45.313  2025
 45.365  2016
 45.417  1987
 45.469  2032
 45.521  1984
 45.573  2026
 45.625  1971
 45.677  2006
 45.729  1973
 45.781  1975
 45.833  2001
 45.885  2000
 45.937  2004
 45.989  1944
 46.041  2029
 46.093  1980
 46.145  1964
 46.197  1980
 46.249  1966
 46.301  1861
 46.353  1880
 46.405  1988
 46.457  1955
 46.509  1873
 46.561  2017
 46.613  1883
 46.665  2007
 46.717  1883
 46.769  1879
 46.821  1947
 46.873  1954
 46.925  1944
 46.977  1982
 47.029  1896
 47.081  1941
 47.133  1954
 47.185  1912
 47.237  1955
 47.289  1931
 47.341  1873
 47.393  1866
 47.445  1889
 47.497  1912
 47.549  1874
 47.601  1962
 47.653  1962
 47.705  1886
 47.757  1934
 47.809  1918
 47.861  1962
 47.913  1874
 47.965  1890
 48.017  1912
 48.069  1934
 48.121  1839
 48.173  1953
 48.225  1954
 48.277  1948
 48.329  1885
 48.381  1849
 48.433  1895
 48.485  1844
 48.537  1847
 48.589  1930
 48.641  1841
 48.693  1843
 48.745  1844
 48.797  1877
 48.849  1922
 48.901  1868
 48.953  1897
 49.005  1852
 49.057  1884
 49.109  1898
 49.161  1899
 49.213  1846
 49.265  1841
 49.317  1908
 49.369  1907
 49.421  1790
 49.473  1864
 49.525  1778
 49.577  1854
 49.629  1851
 49.681  1905
 49.733  1863
 49.785  1908
 49.837  1871
 49.889  1886
 49.941  1917
 49.993  1909
 50.045  1928
 50.097  1831
 50.149  1911
 50.201  1864
 50.253  1814
 50.305  1879
 50.357  1882
 50.409  1921
 50.461  1876
 50.513  1861
 50.565  1909
 50.617  1840
 50.669  1866
 50.721  1824
 50.773  1889
 50.825  1876
 50.877  1900
 50.929  1930
 50.981  1903
 51.033  1874
 51.085  1891
 51.137  1790
 51.189  1886
 51.241  1865
 51.293  1808
 51.345  1826
 51.397  1843
 51.449  1880
 51.501  1873
 51.553  1824
 51.605  1869
 51.657  1818
 51.709  1872
 51.761  1829
 51.813  1804
 51.865  1828
 51.917  1879
 51.969  1834
 52.021  1804
 52.073  1904
 52.125  1878
 52.177  1819
 52.229  1902
 52.281  1797
 52.333  1854
 52.385  1870
 52.437  1829
 52.489  1825
 52.541  1913
 52.593  1866
 52.645  1875
 52.697  1924
 52.749  1851
 52.801  1897
 52.853  1898
 52.905  1905
 52.957  1916
 53.009  1917
 53.061  1956
 53.113  1933
 53.165  2016
 53.217  1988
 53.269  1946
 53.321  1960
 53.373  2016
 53.425  2086
 53.477  2016
 53.529  1981
 53.581  1968
 53.633  1987
 53.685  1953
 53.737  2009
 53.789  1922
 53.841  1899
 53.893  1951
 53.945  1967
 53.997  2000
 54.049  1925
 54.101  1938
 54.153  1965
 54.205  1869
 54.257  1889
 54.309  1942
 54.361  1875
 54.413  1862
 54.465  1902
 54.517  1912
 54.569  1859
 54.621  1960
 54.673  1845
 54.725  1910
 54.777  1906
 54.829  1875
 54.881  1834
 54.933  1847
 54.985  1897
 55.037  1884
 55.089  1902
 55.141  1845
 55.193  1838
 55.245  1858
 55.297  1889
 55.349  1869
 55.401  1847
 55.453  1831
 55.505  1827
 55.557  1867
 55.609  1830
 55.661  1914
 55.713  1920
 55.765  1865
 55.817  1937
 55.869  1937
 55.921  1863
 55.973  1915
 56.025  1896
 56.077  1959
 56.129  1991
 56.181  1997
 56.233  1981
 56.285  1991
 56.337  2005
 56.389  2085
 56.441  2041
 56.493  1992
 56.545  2108
 56.597  2132
 56.649  2167
 56.701  2209
 56.753  2221
 56.805  2173
 56.857  2275
 56.909  2274
 56.961  2227
 57.013  2317
 57.065  2258
 57.117  2243
 57.169  2283
 57.221  2186
 57.273  2213
 57.325  2257
 57.377  2216
 57.429  2116
 57.481  2149
 57.533  2156
 57.585  2010
 57.637  2059
 57.689  2007
 57.741  1977
 57.793  1962
 57.845  1940
 57.897  1970
 57.949  1852
 58.001  1872
 58.053  1908
 58.105  1865
 58.157  1809
 58.209  1877
 58.261  1888
 58.313  1859
 58.365  1875
 58.417  1773
 58.469  1870
 58.521  1862
 58.573  1845
 58.625  1824
 58.677  1819
 58.729  1813
 58.781  1790
 58.833  1906
 58.885  1878
 58.937  1844
 58.989  1783
 59.041  1857
 59.093  1850
 59.145  1846
 59.197  1881
 59.249  1880
 59.301  1830
 59.353  1891
 59.405  1846
 59.457  1829
 59.509  1944
 59.561  1915
 59.613  1901
 59.665  1836
 59.717  1885
 59.769  1779
 59.821  1857
 59.873  1852
 59.925  1846
 59.977  1815
 60.029  1786
 60.081  1907
 60.133  1922
 60.185  1802
 60.237  1782
 60.289  1830
 60.341  1891
 60.393  1829
 60.445  1899
 60.497  1846
 60.549  1847
 60.601  1921
 60.653  1821
 60.705  1892
 60.757  1847
 60.809  1869
 60.861  1843
 60.913  1825
 60.965  1862
 61.017  1878
 61.069  1860
 61.121  1941
 61.173  1945
 61.225  1848
 61.277  1891
 61.329  1900
 61.381  1871
 61.433  1898
 61.485  1969
 61.537  1912
 61.589  1913
 61.641  1988
 61.693  1966
 61.745  1948
 61.797  2088
 61.849  2059
 61.901  2157
 61.953  2235
 62.005  2154
 62.057  2232
 62.109  2368
 62.161  2435
 62.213  2631
 62.265  2532
 62.317  2693
 62.369  2711
 62.421  2812
 62.473  2795
 62.525  2900
 62.577  2912
 62.629  2851
 62.681  2907
 62.733  2860
 62.785  2958
 62.837  2761
 62.889  2683
 62.941  2638
 62.993  2544
 63.045  2467
 63.097  2394
 63.149  2316
 63.201  2273
 63.253  2284
 63.305  2162
 63.357  2084
 63.409  2054
 63.461  2031
 63.513  1952
 63.565  1951
 63.617  1915
 63.669  1906
 63.721  1911
 63.773  1890
 63.825  1867
 63.877  1899
 63.929  1919
 63.981  1860
 64.033  1878
 64.085  1840
 64.137  1864
 64.189  1815
 64.241  1869
 64.293  1844
 64.345  1850
 64.397  1769
 64.449  1817
 64.501  1919
 64.553  1834
 64.605  1802
 64.657  1849
 64.709  1797
 64.761  1827
 64.813  1851
 64.865  1787
 64.917  1828
 64.969  1834
 65.021  1825
 65.073  1892
 65.125  1772
 65.177  1831
 65.229  1751
 65.281  1801
 65.333  1836
 65.385  1846
 65.437  1817
 65.489  1826
 65.541  1776
 65.593  1828
 65.645  1882
 65.697  1883
 65.749  1829
 65.801  1874
 65.853  1745
 65.905  1826
 65.957  1816
 66.009  1822
 66.061  1817
 66.113  1776
 66.165  1829
 66.217  1802
 66.269  1764
 66.321  1787
 66.373  1778
 66.425  1844
 66.477  1770
 66.529  1796
 66.581  1755
 66.633  1749
 66.685  1797
 66.737  1757
 66.789  1671
 66.841  1733
 66.893  1740
 66.945  1704
 66.997  1670
 67.049  1710
 67.101  1759
 67.153  1693
 67.205  1791
 67.257  1744
 67.309  1667
 67.361  1706
 67.413  1683
 67.465  1717
 67.517  1694
 67.569  1613
 67.621  1590
 67.673  1641
 67.725  1650
 67.777  1707
 67.829  1614
 67.881  1633
 67.933  1783
 67.985  1774
 68.037  1677
 68.089  1643
 68.141  1629
 68.193  1708
 68.245  1643
 68.297  1651
 68.349  1600
 68.401  1744
 68.453  1673
 68.505  1619
 68.557  1754
 68.609  1563
 68.661  1671
 68.713  1669
 68.765  1631
 68.817  1584
 68.869  1660
 68.921  1604
 68.973  1630
 69.025  1640
 69.077  1644
 69.129  1583
 69.181  1607
 69.233  1630
 69.285  1634
 69.337  1643
 69.389  1589
 69.441  1616
 69.493  1637
 69.545  1574
 69.597  1600
 69.649  1648
 69.701  1641
 69.753  1627
 69.805  1600
 69.857  1620
 69.909  1610
 69.961  1680
 70.013  1647
 70.065  1595
 70.117  1599
 70.169  1629
 70.221  1657
 70.273  1610
 70.325  1552
 70.377  1574
 70.429  1550
 70.481  1522
 70.533  1645
 70.585  1624
 70.637  1601
 70.689  1658
 70.741  1601
 70.793  1597
 70.845  1540
 70.897  1575
 70.949  1595
 71.001  1615
 71.053  1658
 71.105  1637
 71.157  1580
 71.209  1579
 71.261  1593
 71.313  1627
 71.365  1634
 71.417  1567
 71.469  1588
 71.521  1569
 71.573  1537
 71.625  1564
 71.677  1570
 71.729  1531
 71.781  1552
 71.833  1581
 71.885  1561
 71.937  1615
 71.989  1584
 72.041  1535
 72.093  1484
 72.145  1542
 72.197  1565
 72.249  1549
 72.301  1504
 72.353  1598
 72.405  1558
 72.457  1571
 72.509  1542
 72.561  1565
 72.613  1561
 72.665  1524
 72.717  1570
 72.769  1626
 72.821  1605
 72.873  1683
 72.925  1555
 72.977  1588
 73.029  1599
 73.081  1550
 73.133  1596
 73.185  1646
 73.237  1527
 73.289  1556
 73.341  1586
 73.393  1644
 73.445  1694
 73.497  1679
 73.549  1600
 73.601  1605
 73.653  1656
 73.705  1635
 73.757  1623
 73.809  1568
 73.861  1678
 73.913  1681
 73.965  1615
 74.017  1626
 74.069  1687
 74.121  1680
 74.173  1680
 74.225  1699
 74.277  1705
 74.329  1640
 74.381  1712
 74.433  1709
 74.485  1653
 74.537  1714
 74.589  1681
 74.641  1620
 74.693  1646
 74.745  1576
 74.797  1648
 74.849  1690
 74.901  1642
 74.953  1631
 75.005  1622
 75.057  1637
 75.109  1598
 75.161  1612
 75.213  1601
 75.265  1589
 75.317  1618
 75.369  1563
 75.421  1574
 75.473  1622
 75.525  1538
 75.577  1558
 75.629  1515
 75.681  1521
 75.733  1581
 75.785  1519
 75.837  1515
 75.889  1533
 75.941  1537
 75.993  1606
 76.045  1524
 76.097  1542
 76.149  1541
 76.201  1518
 76.253  1507
 76.305  1538
 76.357  1507
 76.409  1571
 76.461  1509
 76.513  1493
 76.565  1480
 76.617  1483
 76.669  1443
 76.721  1546
 76.773  1469
 76.825  1463
 76.877  1479
 76.929  1517
 76.981  1481
 77.033  1470
 77.085  1490
 77.137  1468
 77.189  1438
 77.241  1512
 77.293  1440
 77.345  1453
 77.397  1463
 77.449  1416
 77.501  1453
 77.553  1430
 77.605  1472
 77.657  1471
 77.709  1407
 77.761  1458
 77.813  1414
 77.865  1402
 77.917  1437
 77.969  1457
 78.021  1470
 78.073  1495
 78.125  1458
 78.177  1466
 78.229  1410
 78.281  1455
 78.333  1492
 78.385  1415
 78.437  1485
 78.489  1442
 78.541  1465
 78.593  1427
 78.645  1505
 78.697  1433
 78.749  1452
 78.801  1469
 78.853  1475
 78.905  1433
 78.957  1460
 79.009  1458
 79.061  1448
 79.113  1491
 79.165  1397
 79.217  1402
 79.269  1413
 79.321  1456
 79.373  1389
 79.425  1388
 79.477  1435
 79.529  1326
 79.581  1362
 79.633  1407
 79.685  1369
 79.737  1360
 79.789  1358
 79.841  1392
 79.867  1399