File: data/colloidalCrystals/nanoparticles/vsm/postOxidationStep/rawdata/dd147_stabledry_2/dd147_stabledry_2.xye
#Extracted data using VSM extraction tool v1.1
#Loaded parameter file: extractVSM.dat
#Desired unit of B: T
#Desired unit of M: memu
#Reading column for B: Applied Field
#Reading column for M: Raw Signal Mx
#Estimate noise level: 5e-3 memu
#Loading data from file: dd147_stabledry_2-Hys-00.VHD
#Save data to file: dd147_stabledry_2.xye
#Extraction performed at: Fri Oct 14 13:35:57 2016
#Unit of B in data: Oe
#Changing unit by multiplying with factor: 0.0001
#Unit of M in data: memu
#Applied image correction factors to M by linear interpolation of following values
#14997.0	1.0
#15246.0	1.000145
#15496.0	1.000446
#15746.0	1.000592
#15995.0	1.000892
#16246.0	1.001261
#16495.0	1.001631
#16745.0	1.002
#16995.0	1.002448
#17245.0	1.002965
#17495.0	1.003491
#17745.0	1.004009
#17994.0	1.004605
#18244.0	1.005202
#18494.0	1.006025
#18744.0	1.006702
#18994.0	1.007597

#B / T	M / memu	sM / memu	M_raw / memu	sM_raw / memu
-0.0009	-0.3374266	0.005	-0.3374266	0.005
0.0	0.02297575	0.005	0.02297575	0.005
0.0009	0.468858	0.005	0.468858	0.005
0.0019	0.8550587	0.005	0.8550587	0.005
0.0029	1.215615	0.005	1.215615	0.005
0.0039	1.538419	0.005	1.538419	0.005
0.0049	1.834247	0.005	1.834247	0.005
0.0074	2.469601	0.005	2.469601	0.005
0.0099	2.995517	0.005	2.995517	0.005
0.0124	3.421459	0.005	3.421459	0.005
0.0149	3.794141	0.005	3.794141	0.005
0.0174	4.111753	0.005	4.111753	0.005
0.0199	4.390319	0.005	4.390319	0.005
0.0224	4.638737	0.005	4.638737	0.005
0.0249	4.8605	0.005	4.8605	0.005
0.0274	5.061451	0.005	5.061451	0.005
0.0299	5.243815	0.005	5.243815	0.005
0.0324	5.409777	0.005	5.409777	0.005
0.0349	5.562517	0.005	5.562517	0.005
0.0374	5.703699	0.005	5.703699	0.005
0.0399	5.830658	0.005	5.830658	0.005
0.0424	5.947933	0.005	5.947933	0.005
0.0449	6.062505	0.005	6.062505	0.005
0.0474	6.165998	0.005	6.165998	0.005
0.0499	6.267044	0.005	6.267044	0.005
0.0524	6.360734	0.005	6.360734	0.005
0.0549	6.44652	0.005	6.44652	0.005
0.0574	6.52652	0.005	6.52652	0.005
0.0599	6.605852	0.005	6.605852	0.005
0.0624	6.678263	0.005	6.678263	0.005
0.0649	6.745018	0.005	6.745018	0.005
0.0673	6.812721	0.005	6.812721	0.005
0.0698	6.872331	0.005	6.872331	0.005
0.0724	6.929213	0.005	6.929213	0.005
0.0749	6.986821	0.005	6.986821	0.005
0.0774	7.037754	0.005	7.037754	0.005
0.0799	7.086719	0.005	7.086719	0.005
0.0824	7.135051	0.005	7.135051	0.005
0.0849	7.181499	0.005	7.181499	0.005
0.0874	7.224175	0.005	7.224175	0.005
0.0899	7.270587	0.005	7.270587	0.005
0.0924	7.310991	0.005	7.310991	0.005
0.0949	7.343103	0.005	7.343103	0.005
0.0974	7.381493	0.005	7.381493	0.005
0.0999	7.41761	0.005	7.41761	0.005
0.1499	7.890174	0.005	7.890174	0.005
0.1999	8.121156	0.005	8.121156	0.005
0.2499	8.24183	0.005	8.24183	0.005
0.2999	8.309627	0.005	8.309627	0.005
0.3499	8.344538	0.005	8.344538	0.005
0.3999	8.365208	0.005	8.365208	0.005
0.4499	8.367832	0.005	8.367832	0.005
0.4999	8.365829	0.005	8.365829	0.005
0.5499	8.352221	0.005	8.352221	0.005
0.5999	8.338507	0.005	8.338507	0.005
0.6499	8.322814	0.005	8.322814	0.005
0.6999	8.296533	0.005	8.296533	0.005
0.75	8.266529	0.005	8.266529	0.005
0.8	8.240342	0.005	8.240342	0.005
0.8499	8.212259	0.005	8.212259	0.005
0.9	8.180041	0.005	8.180041	0.005
0.95	8.143935	0.005	8.143935	0.005
1.0	8.105182	0.005	8.105182	0.005
1.0999	8.030581	0.005	8.030581	0.005
1.2	7.953017	0.005	7.953017	0.005
1.2999	7.874656	0.005	7.874656	0.005
1.4	7.790194	0.005	7.790194	0.005
1.4999	7.69387	0.005	7.693857	0.005
1.6	7.61222	0.005	7.605378	0.005
1.6999	7.51997	0.005	7.501545	0.005
1.8	7.42998	0.005	7.395816	0.005
1.8999	7.33549	0.005	7.280178	0.005
1.8004	7.41881	0.005	7.384631	0.005
1.7003	7.50876	0.005	7.490303	0.005
1.6003	7.60038	0.005	7.593514	0.005
1.5002	7.68045	0.005	7.680424	0.005
1.4003	7.769266	0.005	7.769266	0.005
1.3002	7.856773	0.005	7.856773	0.005
1.2002	7.931644	0.005	7.931644	0.005
1.1001	8.006514	0.005	8.006514	0.005
1.0002	8.080588	0.005	8.080588	0.005
0.9501	8.11434	0.005	8.11434	0.005
0.9001	8.147952	0.005	8.147952	0.005
0.8501	8.174818	0.005	8.174818	0.005
0.8002	8.201871	0.005	8.201871	0.005
0.7501	8.228139	0.005	8.228139	0.005
0.7	8.259022	0.005	8.259022	0.005
0.6501	8.284693	0.005	8.284693	0.005
0.6001	8.293231	0.005	8.293231	0.005
0.5501	8.311278	0.005	8.311278	0.005
0.5	8.318972	0.005	8.318972	0.005
0.4501	8.324371	0.005	8.324371	0.005
0.4001	8.31574	0.005	8.31574	0.005
0.3501	8.296369	0.005	8.296369	0.005
0.3001	8.257628	0.005	8.257628	0.005
0.25	8.191483	0.005	8.191483	0.005
0.2001	8.066722	0.005	8.066722	0.005
0.15	7.840354	0.005	7.840354	0.005
0.1	7.366994	0.005	7.366994	0.005
0.0974	7.326684	0.005	7.326684	0.005
0.0949	7.290566	0.005	7.290566	0.005
0.0924	7.250431	0.005	7.250431	0.005
0.0899	7.212299	0.005	7.212299	0.005
0.0874	7.167445	0.005	7.167445	0.005
0.0849	7.123621	0.005	7.123621	0.005
0.0824	7.077537	0.005	7.077537	0.005
0.0799	7.02746	0.005	7.02746	0.005
0.0774	6.974829	0.005	6.974829	0.005
0.0749	6.925981	0.005	6.925981	0.005
0.0724	6.870399	0.005	6.870399	0.005
0.0699	6.809243	0.005	6.809243	0.005
0.0674	6.746938	0.005	6.746938	0.005
0.0649	6.679657	0.005	6.679657	0.005
0.0624	6.611591	0.005	6.611591	0.005
0.0599	6.538828	0.005	6.538828	0.005
0.0574	6.462904	0.005	6.462904	0.005
0.0549	6.379941	0.005	6.379941	0.005
0.0524	6.295725	0.005	6.295725	0.005
0.0499	6.200629	0.005	6.200629	0.005
0.0474	6.103073	0.005	6.103073	0.005
0.0449	5.999498	0.005	5.999498	0.005
0.0424	5.888054	0.005	5.888054	0.005
0.0399	5.765999	0.005	5.765999	0.005
0.0374	5.637037	0.005	5.637037	0.005
0.0349	5.499258	0.005	5.499258	0.005
0.0324	5.347345	0.005	5.347345	0.005
0.0299	5.181036	0.005	5.181036	0.005
0.0274	5.001811	0.005	5.001811	0.005
0.0249	4.803129	0.005	4.803129	0.005
0.0224	4.583157	0.005	4.583157	0.005
0.0199	4.340408	0.005	4.340408	0.005
0.0174	4.061277	0.005	4.061277	0.005
0.0149	3.747068	0.005	3.747068	0.005
0.0124	3.382061	0.005	3.382061	0.005
0.0099	2.951105	0.005	2.951105	0.005
0.0074	2.444056	0.005	2.444056	0.005
0.0049	1.810841	0.005	1.810841	0.005
0.004	1.548366	0.005	1.548366	0.005
0.003	1.228923	0.005	1.228923	0.005
0.0019	0.8499654	0.005	0.8499654	0.005
0.001	0.5046929	0.005	0.5046929	0.005
0.0	0.1009557	0.005	0.1009557	0.005
-0.0009	-0.3392535	0.005	-0.3392535	0.005
-0.0019	-0.728505	0.005	-0.728505	0.005
-0.0028	-1.090972	0.005	-1.090972	0.005
-0.0039	-1.41827	0.005	-1.41827	0.005
-0.0049	-1.719216	0.005	-1.719216	0.005
-0.0073	-2.361253	0.005	-2.361253	0.005
-0.0099	-2.882171	0.005	-2.882171	0.005
-0.0124	-3.318277	0.005	-3.318277	0.005
-0.0149	-3.687035	0.005	-3.687035	0.005
-0.0174	-4.006479	0.005	-4.006479	0.005
-0.0199	-4.289452	0.005	-4.289452	0.005
-0.0224	-4.536475	0.005	-4.536475	0.005
-0.0249	-4.753566	0.005	-4.753566	0.005
-0.0273	-4.956963	0.005	-4.956963	0.005
-0.0298	-5.13636	0.005	-5.13636	0.005
-0.0324	-5.302757	0.005	-5.302757	0.005
-0.0349	-5.45467	0.005	-5.45467	0.005
-0.0374	-5.594281	0.005	-5.594281	0.005
-0.0399	-5.724029	0.005	-5.724029	0.005
-0.0424	-5.84575	0.005	-5.84575	0.005
-0.0449	-5.957092	0.005	-5.957092	0.005
-0.0474	-6.063196	0.005	-6.063196	0.005
-0.0499	-6.159522	0.005	-6.159522	0.005
-0.0523	-6.250624	0.005	-6.250624	0.005
-0.0549	-6.339185	0.005	-6.339185	0.005
-0.0574	-6.418764	0.005	-6.418764	0.005
-0.0599	-6.497557	0.005	-6.497557	0.005
-0.0624	-6.56998	0.005	-6.56998	0.005
-0.0649	-6.638995	0.005	-6.638995	0.005
-0.0674	-6.701475	0.005	-6.701475	0.005
-0.0699	-6.763955	0.005	-6.763955	0.005
-0.0724	-6.820298	0.005	-6.820298	0.005
-0.0749	-6.878515	0.005	-6.878515	0.005
-0.0774	-6.930326	0.005	-6.930326	0.005
-0.0799	-6.980942	0.005	-6.980942	0.005
-0.0824	-7.028514	0.005	-7.028514	0.005
-0.0849	-7.074691	0.005	-7.074691	0.005
-0.0874	-7.116466	0.005	-7.116466	0.005
-0.0899	-7.160289	0.005	-7.160289	0.005
-0.0924	-7.198691	0.005	-7.198691	0.005
-0.0949	-7.239165	0.005	-7.239165	0.005
-0.0974	-7.27355	0.005	-7.27355	0.005
-0.0999	-7.308531	0.005	-7.308531	0.005
-0.1498	-7.782863	0.005	-7.782863	0.005
-0.1998	-8.008505	0.005	-8.008505	0.005
-0.2498	-8.128406	0.005	-8.128406	0.005
-0.2998	-8.195593	0.005	-8.195593	0.005
-0.3498	-8.230399	0.005	-8.230399	0.005
-0.3998	-8.250309	0.005	-8.250309	0.005
-0.4499	-8.250297	0.005	-8.250297	0.005
-0.4999	-8.24751	0.005	-8.24751	0.005
-0.5498	-8.238422	0.005	-8.238422	0.005
-0.5999	-8.219321	0.005	-8.219321	0.005
-0.6499	-8.204412	0.005	-8.204412	0.005
-0.6999	-8.18277	0.005	-8.18277	0.005
-0.7499	-8.154756	0.005	-8.154756	0.005
-0.7998	-8.124998	0.005	-8.124998	0.005
-0.8499	-8.093576	0.005	-8.093576	0.005
-0.8999	-8.058243	0.005	-8.058243	0.005
-0.9499	-8.024831	0.005	-8.024831	0.005
-0.9999	-7.989919	0.005	-7.989919	0.005
-1.0999	-7.919429	0.005	-7.919429	0.005
-1.1999	-7.841666	0.005	-7.841666	0.005
-1.2999	-7.758164	0.005	-7.758164	0.005
-1.3998	-7.671008	0.005	-7.671008	0.005
-1.4999	-7.58114	0.005	-7.581136	0.005
-1.5999	-7.48759	0.005	-7.480875	0.005
-1.7	-7.40514	0.005	-7.386985	0.005
-1.7999	-7.31617	0.005	-7.282544	0.005
-1.8999	-7.22356	0.005	-7.169096	0.005
-1.8003	-7.30677	0.005	-7.273116	0.005
-1.7003	-7.39619	0.005	-7.378003	0.005
-1.6001	-7.48037	0.005	-7.473637	0.005
-1.5003	-7.56869	0.005	-7.568663	0.005
-1.4001	-7.662096	0.005	-7.662096	0.005
-1.3002	-7.737564	0.005	-7.737564	0.005
-1.2001	-7.823958	0.005	-7.823958	0.005
-1.1002	-7.90048	0.005	-7.90048	0.005
-1.0001	-7.970631	0.005	-7.970631	0.005
-0.9501	-8.007381	0.005	-8.007381	0.005
-0.9001	-8.034692	0.005	-8.034692	0.005
-0.8501	-8.072297	0.005	-8.072297	0.005
-0.8	-8.098389	0.005	-8.098389	0.005
-0.75	-8.125595	0.005	-8.125595	0.005
-0.7001	-8.154662	0.005	-8.154662	0.005
-0.65	-8.174806	0.005	-8.174806	0.005
-0.6	-8.195839	0.005	-8.195839	0.005
-0.55	-8.209635	0.005	-8.209635	0.005
-0.5	-8.222822	0.005	-8.222822	0.005
-0.45	-8.220726	0.005	-8.220726	0.005
-0.4	-8.220796	0.005	-8.220796	0.005
-0.35	-8.199692	0.005	-8.199692	0.005
-0.3	-8.161455	0.005	-8.161455	0.005
-0.25	-8.09497	0.005	-8.09497	0.005
-0.2	-7.971333	0.005	-7.971333	0.005
-0.15	-7.744028	0.005	-7.744028	0.005
-0.1	-7.278094	0.005	-7.278094	0.005
-0.0975	-7.240828	0.005	-7.240828	0.005
-0.0949	-7.203399	0.005	-7.203399	0.005
-0.0925	-7.163615	0.005	-7.163615	0.005
-0.09	-7.124664	0.005	-7.124664	0.005
-0.0875	-7.082959	0.005	-7.082959	0.005
-0.0849	-7.039171	0.005	-7.039171	0.005
-0.0824	-6.991939	0.005	-6.991939	0.005
-0.0799	-6.942927	0.005	-6.942927	0.005
-0.0774	-6.89107	0.005	-6.89107	0.005
-0.0749	-6.840477	0.005	-6.840477	0.005
-0.0724	-6.783665	0.005	-6.783665	0.005
-0.07	-6.726338	0.005	-6.726338	0.005
-0.0675	-6.663694	0.005	-6.663694	0.005
-0.0649	-6.598767	0.005	-6.598767	0.005
-0.0624	-6.531146	0.005	-6.531146	0.005
-0.0599	-6.457329	0.005	-6.457329	0.005
-0.0574	-6.379507	0.005	-6.379507	0.005
-0.0549	-6.297926	0.005	-6.297926	0.005
-0.0524	-6.212141	0.005	-6.212141	0.005
-0.0499	-6.120886	0.005	-6.120886	0.005
-0.0474	-6.02558	0.005	-6.02558	0.005
-0.0449	-5.919662	0.005	-5.919662	0.005
-0.0424	-5.810673	0.005	-5.810673	0.005
-0.0399	-5.68773	0.005	-5.68773	0.005
-0.0374	-5.560162	0.005	-5.560162	0.005
-0.0349	-5.420291	0.005	-5.420291	0.005
-0.0324	-5.269686	0.005	-5.269686	0.005
-0.0299	-5.107043	0.005	-5.107043	0.005
-0.0274	-4.923804	0.005	-4.923804	0.005
-0.0249	-4.727653	0.005	-4.727653	0.005
-0.0224	-4.50768	0.005	-4.50768	0.005
-0.0199	-4.2631	0.005	-4.2631	0.005
-0.0174	-3.984142	0.005	-3.984142	0.005
-0.0149	-3.669061	0.005	-3.669061	0.005
-0.0124	-3.300738	0.005	-3.300738	0.005
-0.0099	-2.87083	0.005	-2.87083	0.005
-0.0074	-2.352614	0.005	-2.352614	0.005
-0.0049	-1.713017	0.005	-1.713017	0.005
-0.004	-1.449853	0.005	-1.449853	0.005
-0.003	-1.121859	0.005	-1.121859	0.005
-0.002	-0.7699514	0.005	-0.7699514	0.005
-0.001	-0.3875061	0.005	-0.3875061	0.005
0.0	0.01483365	0.005	0.01483365	0.005
0.0009	0.4452701	0.005	0.4452701	0.005
0.0019	0.8256223	0.005	0.8256223	0.005
0.0029	1.173863	0.005	1.173863	0.005
0.0039	1.490431	0.005	1.490431	0.005
0.0049	1.780555	0.005	1.780555	0.005
0.0074	2.403221	0.005	2.403221	0.005
0.0099	2.90896	0.005	2.90896	0.005
0.0124	3.330058	0.005	3.330058	0.005
0.0149	3.692182	0.005	3.692182	0.005
0.0174	4.001245	0.005	4.001245	0.005
0.0199	4.277499	0.005	4.277499	0.005
0.0224	4.517713	0.005	4.517713	0.005
0.0249	4.733149	0.005	4.733149	0.005
0.0274	4.928778	0.005	4.928778	0.005
0.0299	5.105646	0.005	5.105646	0.005
0.0324	5.269948	0.005	5.269948	0.005
0.0349	5.417588	0.005	5.417588	0.005
0.0374	5.556325	0.005	5.556325	0.005
0.0399	5.684415	0.005	5.684415	0.005
0.0424	5.800903	0.005	5.800903	0.005
0.0449	5.910855	0.005	5.910855	0.005
0.0474	6.015824	0.005	6.015824	0.005
0.0499	6.109608	0.005	6.109608	0.005
0.0524	6.200465	0.005	6.200465	0.005
0.0549	6.284833	0.005	6.284833	0.005
0.0574	6.36632	0.005	6.36632	0.005
0.0599	6.439013	0.005	6.439013	0.005
0.0624	6.513953	0.005	6.513953	0.005
0.0648	6.580368	0.005	6.580368	0.005
0.0673	6.642918	0.005	6.642918	0.005
0.0698	6.708115	0.005	6.708115	0.005
0.0724	6.761425	0.005	6.761425	0.005
0.0749	6.818647	0.005	6.818647	0.005
0.0774	6.873713	0.005	6.873713	0.005
0.0799	6.922315	0.005	6.922315	0.005
0.0824	6.969172	0.005	6.969172	0.005
0.0849	7.012282	0.005	7.012282	0.005
0.0874	7.057148	0.005	7.057148	0.005
0.0899	7.100491	0.005	7.100491	0.005
0.0924	7.137148	0.005	7.137148	0.005
0.0949	7.173102	0.005	7.173102	0.005
0.0974	7.213166	0.005	7.213166	0.005
0.0999	7.24755	0.005	7.24755	0.005
0.1499	7.713755	0.005	7.713755	0.005
0.1999	7.935907	0.005	7.935907	0.005
0.2499	8.055538	0.005	8.055538	0.005
0.2999	8.117842	0.005	8.117842	0.005
0.3499	8.157707	0.005	8.157707	0.005
0.3999	8.170625	0.005	8.170625	0.005
0.4499	8.172475	0.005	8.172475	0.005
0.4999	8.169231	0.005	8.169231	0.005
0.5499	8.15362	0.005	8.15362	0.005
0.5999	8.140094	0.005	8.140094	0.005
0.6499	8.129624	0.005	8.129624	0.005
0.6999	8.101259	0.005	8.101259	0.005
0.75	8.073421	0.005	8.073421	0.005
0.8	8.04289	0.005	8.04289	0.005
0.8499	8.014958	0.005	8.014958	0.005
0.8999	7.980855	0.005	7.980855	0.005
0.95	7.945065	0.005	7.945065	0.005
1.0	7.913058	0.005	7.913058	0.005
1.0999	7.838258	0.005	7.838258	0.005
1.2	7.7593	0.005	7.7593	0.005
1.2999	7.675974	0.005	7.675974	0.005
1.4	7.591079	0.005	7.591079	0.005
1.4999	7.49913	0.005	7.499121	0.005
1.6	7.40961	0.005	7.402948	0.005
1.7	7.32518	0.005	7.30722	0.005
1.8	7.23526	0.005	7.201993	0.005
1.8999	7.14292	0.005	7.089061	0.005