File: data/monolayers/nanoparticles/Ol_CoFe_C/vsm/Backup/ZFCFC/DD67_FCw_LangevinSAXSscaled.xye
#Executed at: 2018-11-12 10:16:50.9211
#Loaded File	 = ./DD172_6_FCW_100OE.DAT
#Rescale Factor	 = 0.0572735
#[[Data]]
#T/K	M/kAm-1	sM/kAm-1	M_raw/memu	sM_raw/memu
10.0052	9.74316	2.00231e-05	170.116	0.000349604
10.013	9.75376	2.04445e-05	170.301	0.000356962
10.5423	9.72696	1.76532e-05	169.834	0.000308227
11.0185	9.73236	1.96095e-05	169.928	0.000342384
11.5288	9.71804	1.72853e-05	169.678	0.000301802
12.0056	9.72534	2.06862e-05	169.805	0.000361183
12.5171	9.71614	1.73716e-05	169.645	0.00030331
13.0476	9.73277	2.15872e-05	169.935	0.000376915
13.5039	9.71605	1.83982e-05	169.643	0.000321235
14.0201	9.71697	1.84287e-05	169.659	0.000321767
14.5611	9.75599	1.91047e-05	170.34	0.000333569
15.0107	9.73948	1.99456e-05	170.052	0.000348252
15.5324	9.7505	2.06903e-05	170.244	0.000361254
16.0213	9.72755	2.03648e-05	169.844	0.000355572
16.5189	9.72426	1.68649e-05	169.786	0.000294462
17.0051	9.74035	1.51572e-05	170.067	0.000264645
17.5182	9.72012	1.87783e-05	169.714	0.00032787
18.0209	9.73283	1.82503e-05	169.936	0.000318651
18.546	9.71857	2.35227e-05	169.687	0.000410709
19.0206	9.71757	1.82198e-05	169.67	0.000318119
19.5058	9.71368	2.24182e-05	169.602	0.000391424
20.7193	9.7114	2.08348e-05	169.562	0.000363777
21.0652	9.71753	2.09252e-05	169.669	0.000365356
21.5175	9.7394	2.1182e-05	170.051	0.000369839
22.0174	9.72899	1.78011e-05	169.869	0.000310808
22.5496	9.70893	2.05193e-05	169.519	0.000358268
23.038	9.71909	2.05831e-05	169.696	0.000359382
23.5066	9.71836	1.6916e-05	169.683	0.000295354
24.0463	9.71445	1.65385e-05	169.615	0.000288763
24.5325	9.71782	1.7902e-05	169.674	0.00031257
25.0397	9.70409	2.12529e-05	169.434	0.000371078
25.5029	9.70022	1.99084e-05	169.367	0.000347602
26.0532	9.72007	1.83045e-05	169.713	0.000319598
26.5503	9.71729	2.01715e-05	169.665	0.000352196
27.0349	9.72064	1.96181e-05	169.723	0.000342534
27.5247	9.71861	1.62904e-05	169.688	0.000284431
28.049	9.71645	2.01702e-05	169.65	0.000352174
28.5542	9.72272	1.69464e-05	169.759	0.000295886
29.0603	9.71596	1.63205e-05	169.642	0.000284958
29.5554	9.73177	1.89944e-05	169.917	0.000331644
30.0032	9.71721	1.54944e-05	169.663	0.000270533
31.1381	9.72135	1.5819e-05	169.736	0.000276201
31.5172	9.72029	1.58159e-05	169.717	0.000276147
32.0268	9.70286	1.94483e-05	169.413	0.000339569
32.5474	9.71392	1.54499e-05	169.606	0.000269756
33.0235	9.69387	1.55353e-05	169.256	0.000271248
33.5146	9.70304	1.80123e-05	169.416	0.000314496
34.049	9.7125	1.69856e-05	169.581	0.00029657
34.5334	9.70261	1.87673e-05	169.408	0.000327679
35.055	9.68515	1.74034e-05	169.103	0.000303865
35.5435	9.69406	1.90888e-05	169.259	0.000333292
36.0244	9.68582	2.17449e-05	169.115	0.000379667
36.5343	9.7021	1.98374e-05	169.399	0.000346363
37.0175	9.69817	2.04119e-05	169.331	0.000356394
37.5024	9.70683	2.08505e-05	169.482	0.000364052
38.0185	9.70206	1.62241e-05	169.399	0.000283275
38.5646	9.69721	1.86193e-05	169.314	0.000325094
39.0044	9.68852	1.94933e-05	169.162	0.000340355
39.5086	9.70027	2.00145e-05	169.367	0.000349455
40.052	9.70203	2.02013e-05	169.398	0.000352717
40.5635	9.68598	1.89397e-05	169.118	0.000330688
41.5251	9.69744	2.08494e-05	169.318	0.000364032
42.0406	9.69171	2.03537e-05	169.218	0.000355378
42.5537	9.6928	1.807e-05	169.237	0.000315504
43.0209	9.69912	2.03736e-05	169.347	0.000355726
43.5005	9.69099	1.88218e-05	169.205	0.00032863
44.0593	9.69055	2.11467e-05	169.198	0.000369224
44.5042	9.69456	1.84466e-05	169.268	0.000322079
45.0132	9.67665	1.8872e-05	168.955	0.000329506
45.5161	9.67707	1.9988e-05	168.962	0.000348991
46.0281	9.69662	1.43695e-05	169.304	0.000250893
46.5304	9.67399	1.78476e-05	168.909	0.000311621
47.0285	9.67012	2.02067e-05	168.841	0.000352811
47.5392	9.68044	2.08778e-05	169.021	0.000364529
48.0337	9.67451	2.13108e-05	168.918	0.000372088
48.5377	9.69052	2.11447e-05	169.197	0.000369188
49.0357	9.6733	1.75029e-05	168.897	0.000305602
49.5481	9.69479	1.60846e-05	169.272	0.000280838
50.0174	9.67586	1.82852e-05	168.941	0.00031926
50.5417	9.66451	1.66639e-05	168.743	0.000290953
51.0435	9.68947	1.94044e-05	169.179	0.000338802
51.9085	9.68251	2.17089e-05	169.057	0.00037904
52.0365	9.66653	1.76014e-05	168.778	0.000307322
52.5013	9.66498	1.91637e-05	168.751	0.000334599
53.051	9.65851	2.0102e-05	168.638	0.000350983
53.5432	9.63671	1.69102e-05	168.258	0.000295253
54.0433	9.65193	1.67403e-05	168.523	0.000292287
54.514	9.63939	1.79891e-05	168.304	0.000314091
55.0104	9.639	2.01113e-05	168.298	0.000351144
55.5252	9.65533	2.02141e-05	168.583	0.000352939
56.0206	9.64544	2.12878e-05	168.41	0.000371687
56.5303	9.65143	1.91981e-05	168.515	0.0003352
57.0257	9.65244	1.86875e-05	168.532	0.000326284
57.5407	9.63821	1.65833e-05	168.284	0.000289545
58.0028	9.65227	2.28226e-05	168.529	0.000398484
58.5216	9.6422	2.21208e-05	168.354	0.000386231
59.0605	9.63744	1.70153e-05	168.271	0.000297088
59.505	9.63936	2.24316e-05	168.304	0.000391657
60.0056	9.65229	1.90003e-05	168.53	0.000331746
60.5092	9.63281	2.24267e-05	168.19	0.000391572
61.00634	9.63353	1.75008e-05	168.202	0.000305565
61.5008	9.64105	2.28865e-05	168.334	0.0003996
62.3554	9.63641	2.10149e-05	168.252	0.000366922
62.5257	9.66328	1.69964e-05	168.722	0.000296759
63.0414	9.65108	2.01459e-05	168.509	0.000351748
63.5196	9.63413	1.87276e-05	168.213	0.000326986
64.0125	9.62694	1.90102e-05	168.087	0.00033192
64.5255	9.6342	1.59709e-05	168.214	0.000278854
65.0183	9.64892	1.7348e-05	168.471	0.000302898
65.5418	9.62265	1.79701e-05	168.012	0.00031376
66.0462	9.60951	1.50168e-05	167.783	0.000262195
66.5248	9.62493	2.04851e-05	168.052	0.000357671
67.0768	9.6429	1.86547e-05	168.366	0.000325713
67.5582	9.62294	1.87043e-05	168.017	0.000326578
68.004	9.62255	1.74386e-05	168.01	0.000304479
68.5724	9.62709	2.10269e-05	168.09	0.000367132
69.0618	9.63505	1.78791e-05	168.229	0.00031217
69.5428	9.61458	1.98852e-05	167.871	0.000347197
70.0581	9.62735	2.42245e-05	168.094	0.000422961
70.5648	9.60262	2.02538e-05	167.663	0.000353632
71.0137	9.63485	1.714e-05	168.225	0.000299266
71.5299	9.62475	1.7218e-05	168.049	0.000300628
72.7378	9.62388	1.78342e-05	168.034	0.000311387
73.0516	9.6184	2.12133e-05	167.938	0.000370386
73.5532	9.59757	2.24245e-05	167.574	0.000391533
74.0546	9.60268	1.92824e-05	167.664	0.000336673
74.5604	9.61667	1.72875e-05	167.908	0.000301841
75.0036	9.6145	2.02004e-05	167.87	0.000352701
75.5546	9.60707	1.95719e-05	167.74	0.000341727
76.0085	9.59705	2.26902e-05	167.565	0.000396173
76.5046	9.5985	1.90836e-05	167.591	0.0003332
77.0126	9.59149	2.1222e-05	167.468	0.000370538
77.5098	9.58338	2.17634e-05	167.327	0.000379991
78.027	9.59221	1.97534e-05	167.481	0.000344897
78.522	9.58888	2.12813e-05	167.423	0.000371573
79.0703	9.60041	2.03419e-05	167.624	0.000355171
79.5648	9.58979	1.91022e-05	167.439	0.000333526
80.037	9.57958	2.14284e-05	167.26	0.000374141
80.6088	9.58283	1.50584e-05	167.317	0.000262921
81.0706	9.59572	1.72935e-05	167.542	0.000301946
81.5807	9.57988	1.67222e-05	167.266	0.000291972
82.0258	9.5904	1.69617e-05	167.449	0.000296153
83.3097	9.59546	2.04091e-05	167.537	0.000356344
83.5339	9.60174	2.07837e-05	167.647	0.000362885
84.0886	9.55741	1.9323e-05	166.873	0.00033738
84.5592	9.57746	1.77163e-05	167.223	0.000309327
85.0418	9.60278	2.00985e-05	167.665	0.000350922
85.5235	9.59392	2.02353e-05	167.511	0.000353309
86.0149	9.57112	2.22505e-05	167.113	0.000388496
86.5263	9.60114	1.92815e-05	167.637	0.000336657
87.0082	9.58746	1.84447e-05	167.398	0.000322045
87.5772	9.56818	1.91361e-05	167.061	0.000334118
88.0863	9.56831	1.59159e-05	167.063	0.000277893
88.5657	9.58462	1.89437e-05	167.348	0.000330759
89.0778	9.57547	1.66021e-05	167.189	0.000289874
89.5694	9.57898	1.88403e-05	167.25	0.000328953
90.0471	9.57451	1.85916e-05	167.172	0.000324611
90.52742	9.57642	1.84731e-05	167.205	0.000322543
91.0306	9.56292	2.11482e-05	166.969	0.000369249
91.5146	9.56737	1.91446e-05	167.047	0.000334267
92.0137	9.55685	1.77937e-05	166.863	0.000310679
92.5092	9.57337	1.74138e-05	167.152	0.000304047
93.7197	9.55336	2.01227e-05	166.803	0.000351344
94.0466	9.57638	1.79791e-05	167.204	0.000313917
94.5577	9.56098	1.91961e-05	166.935	0.000335166
95.0578	9.56457	1.83748e-05	166.998	0.000320826
95.5374	9.54064	1.85477e-05	166.58	0.000323844
96.031	9.56185	1.91153e-05	166.951	0.000333754
96.5118	9.56679	1.74181e-05	167.037	0.000304122
97.0617	9.56076	1.96524e-05	166.932	0.000343132
97.5731	9.54227	1.99733e-05	166.609	0.000348736
98.0673	9.54532	1.98926e-05	166.662	0.000347326
98.5125	9.53072	2.44424e-05	166.407	0.000426766
99.0609	9.56261	1.78681e-05	166.964	0.000311979
99.5504	9.5484	1.85627e-05	166.716	0.000324107
100.009	9.55016	1.80595e-05	166.747	0.00031532
100.527	9.53869	1.78489e-05	166.546	0.000311643
101.024	9.55151	1.93867e-05	166.77	0.000338493
101.511	9.54644	1.9543e-05	166.682	0.000341223
102.023	9.53693	2.01664e-05	166.516	0.000352107
102.532	9.55432	1.72655e-05	166.819	0.000301457
103.024	9.53844	2.18196e-05	166.542	0.000380972
103.966	9.54631	1.68015e-05	166.679	0.000293355
104.025	9.53738	2.14032e-05	166.523	0.000373701
104.525	9.56594	1.84762e-05	167.022	0.000322596
105.078	9.54075	1.77535e-05	166.582	0.000309977
105.553	9.52669	1.49809e-05	166.337	0.000261568
106.042	9.52495	1.70297e-05	166.306	0.00029734
106.536	9.52283	2.01376e-05	166.269	0.000351605
107.025	9.53141	1.95001e-05	166.419	0.000340473
107.543	9.52337	1.95141e-05	166.279	0.000340717
108.056	9.55178	1.93224e-05	166.775	0.000337371
108.508	9.52405	2.2591e-05	166.291	0.000394441
109.002	9.53621	1.92067e-05	166.503	0.000335351
109.503	9.52295	2.18046e-05	166.271	0.000380711
110.054	9.54851	1.78691e-05	166.718	0.000311996
110.526	9.54709	2.1141e-05	166.693	0.000369124
111.031	9.52352	1.91042e-05	166.281	0.000333561
111.512	9.55228	2.09273e-05	166.784	0.000365392
112.053	9.54545	2.18229e-05	166.664	0.00038103
112.532	9.52348	1.76639e-05	166.281	0.000308413
113.018	9.51454	2.06754e-05	166.125	0.000360994
113.519	9.53028	1.74145e-05	166.4	0.000304059
114.368	9.53176	1.96606e-05	166.425	0.000343275
114.554	9.53194	1.92454e-05	166.428	0.000336027
115.041	9.53216	2.0109e-05	166.432	0.000351104
115.508	9.52661	1.99978e-05	166.335	0.000349164
116.031	9.53974	2.05448e-05	166.565	0.000358714
116.563	9.52767	1.95465e-05	166.354	0.000341283
117.036	9.52035	1.91276e-05	166.226	0.000333969
117.539	9.51849	1.82128e-05	166.194	0.000317998
118.037	9.5021	2.035e-05	165.907	0.000355312
118.518	9.53013	1.89636e-05	166.397	0.000331105
119.022	9.51582	1.68487e-05	166.147	0.000294179
119.505	9.51334	1.9894e-05	166.104	0.00034735
120.046	9.53045	1.83962e-05	166.402	0.000321199
120.504	9.52929	1.76957e-05	166.382	0.000308967
121.035	9.52231	2.05231e-05	166.26	0.000358336
121.504	9.51756	1.9643e-05	166.177	0.000342969
122.004	9.50633	2.05639e-05	165.981	0.000359047
122.564	9.53861	1.8797e-05	166.545	0.000328197
123.044	9.5352	2.04943e-05	166.485	0.000357833
123.526	9.51638	2.00053e-05	166.157	0.000349294
124.004	9.50946	1.99974e-05	166.036	0.000349157
124.811	9.51751	2.16824e-05	166.176	0.000378576
125.044	9.52824	2.09832e-05	166.364	0.000366368
125.506	9.51677	2.11645e-05	166.164	0.000369534
126.024	9.51861	1.88395e-05	166.196	0.00032894
126.545	9.51299	1.94511e-05	166.098	0.000339618
127.007	9.529	1.94444e-05	166.377	0.000339501
127.548	9.51134	1.74269e-05	166.069	0.000304275
128.05	9.48972	2.1144e-05	165.691	0.000369176
128.532	9.50798	1.76731e-05	166.01	0.000308574
129.003	9.52968	1.91367e-05	166.389	0.000334129
129.543	9.50382	1.68421e-05	165.938	0.000294064
130.018	9.5145	1.83359e-05	166.124	0.000320146
130.542	9.53443	1.78115e-05	166.472	0.000310991
131.064	9.51788	1.87172e-05	166.183	0.000326804
131.514	9.51526	2.18166e-05	166.137	0.000380919
132.001	9.51572	1.71537e-05	166.145	0.000299505
132.544	9.52753	2.31976e-05	166.351	0.000405032
133.045	9.51013	1.95617e-05	166.048	0.000341548
133.532	9.50318	1.97105e-05	165.926	0.000344147
134.005	9.52728	1.9316e-05	166.347	0.000337258
135.217	9.52295	1.84517e-05	166.271	0.000322169
135.52	9.5165	2.02316e-05	166.159	0.000353245
136.023	9.53084	1.79315e-05	166.409	0.000313085
136.517	9.52032	1.86486e-05	166.226	0.000325607
137.016	9.52734	1.93641e-05	166.348	0.000338099
137.554	9.5195	1.75666e-05	166.211	0.000306714
138.021	9.54231	2.02683e-05	166.609	0.000353887
138.566	9.51885	2.01924e-05	166.2	0.00035256
139.036	9.51329	1.96593e-05	166.103	0.000343253
139.515	9.50896	1.80801e-05	166.027	0.00031568
140.052	9.51749	1.89603e-05	166.176	0.000331048
140.529	9.4937	1.995e-05	165.761	0.000348329
141.009	9.5053	2.29719e-05	165.963	0.000401092
141.558	9.52049	1.86493e-05	166.228	0.000325618
142.044	9.51281	1.5808e-05	166.094	0.000276009
142.523	9.53115	2.17344e-05	166.415	0.000379485
143.042	9.48599	1.81052e-05	165.626	0.000316118
143.541	9.52438	1.69428e-05	166.296	0.000295822
144.006	9.52796	1.90652e-05	166.359	0.000332879
144.559	9.50708	1.79544e-05	165.994	0.000313485
145.687	9.50897	1.8761e-05	166.027	0.000327569
146.055	9.52251	1.91655e-05	166.264	0.00033463
146.534	9.52075	2.15454e-05	166.233	0.000376184
147.017	9.50409	1.95098e-05	165.942	0.000340642
147.553	9.50768	1.96393e-05	166.005	0.000342904
148.05	9.5215	2.06554e-05	166.246	0.000360646
148.546	9.52162	2.09665e-05	166.248	0.000366077
149.029	9.50684	1.77365e-05	165.99	0.000309681
149.501	9.50619	1.881e-05	165.979	0.000328424
150.066	9.51844	1.71216e-05	166.193	0.000298945
150.553	9.50763	1.61518e-05	166.004	0.000282012
151.034	9.51663	1.80976e-05	166.161	0.000315986
151.516	9.50293	1.9105e-05	165.922	0.000333575
152.02	9.51132	1.94195e-05	166.068	0.000339067
152.511	9.48161	2.18495e-05	165.55	0.000381495
153.017	9.5069	1.91297e-05	165.991	0.000334006
153.519	9.48596	2.03446e-05	165.626	0.000355219
154.03	9.48931	1.78025e-05	165.684	0.000310834
154.529	9.47643	1.93496e-05	165.459	0.000337845
155.027	9.49345	1.90798e-05	165.756	0.000333135
156.132	9.49253	2.22257e-05	165.74	0.000388063
156.514	9.48698	1.69927e-05	165.643	0.000296694
157.036	9.47844	1.72246e-05	165.494	0.000300744
157.557	9.47492	2.36787e-05	165.433	0.000413432
158.028	9.46654	1.94773e-05	165.286	0.000340075
158.504	9.47386	2.17673e-05	165.414	0.000380059
159.067	9.4691	1.60539e-05	165.331	0.000280302
159.556	9.45491	2.32205e-05	165.083	0.000405431
160.037	9.45584	2.42079e-05	165.1	0.000422671
160.539	9.44848	1.75248e-05	164.971	0.000305985
161.02	9.43539	2.40984e-05	164.743	0.00042076
161.508	9.44672	1.90668e-05	164.94	0.000332908
162.035	9.44355	2.2581e-05	164.885	0.000394266
162.525	9.43783	1.87809e-05	164.785	0.000327916
163.006	9.43172	1.65277e-05	164.679	0.000288574
163.57	9.41579	1.75507e-05	164.4	0.000306436
164.008	9.42626	2.10999e-05	164.583	0.000368406
164.523	9.41317	1.85149e-05	164.355	0.000323272
165.009	9.39246	1.89646e-05	163.993	0.000331124
165.553	9.40826	2.27067e-05	164.269	0.00039646
166.547	9.36644	1.91873e-05	163.539	0.000335012
167.03	9.37128	2.18303e-05	163.623	0.000381159
167.508	9.35515	2.21331e-05	163.342	0.000386446
168.012	9.36509	2.05633e-05	163.515	0.000359037
168.549	9.34297	1.99917e-05	163.129	0.000349057
169.026	9.34045	2.23114e-05	163.085	0.000389559
169.514	9.33	1.84789e-05	162.903	0.000322643
170.005	9.32089	1.65215e-05	162.744	0.000288466
170.519	9.33205	2.16368e-05	162.938	0.00037778
171.053	9.32675	1.80479e-05	162.846	0.000315117
171.536	9.29757	1.91752e-05	162.336	0.000334801
172.022	9.28682	2.14299e-05	162.149	0.000374167
172.508	9.26871	2.219e-05	161.832	0.000387439
173.004	9.25784	1.87265e-05	161.643	0.000326967
173.555	9.24156	2.02999e-05	161.358	0.000354437
174.029	9.2496	2.08295e-05	161.499	0.000363684
174.505	9.25609	1.78856e-05	161.612	0.000312284
175.05	9.2139	2.29983e-05	160.875	0.000401552
175.533	9.2086	1.9052e-05	160.783	0.000332649
176.025	9.21262	1.58682e-05	160.853	0.00027706
176.948	9.16871	1.97583e-05	160.086	0.000344981
177.017	9.1905	1.75928e-05	160.467	0.000307172
177.514	9.17628	2.17565e-05	160.219	0.00037987
178.05	9.14076	2.07443e-05	159.598	0.000362197
178.534	9.14804	1.98891e-05	159.725	0.000347265
179.026	9.10869	1.81271e-05	159.038	0.0003165
179.55	9.10294	1.84483e-05	158.938	0.000322109
180.02	9.09663	2.00677e-05	158.828	0.000350383
180.559	9.07898	2.02413e-05	158.52	0.000353415
181.037	9.06722	2.43e-05	158.314	0.00042428
181.512	9.08503	2.16588e-05	158.625	0.000378164
182.007	9.04378	2.29303e-05	157.905	0.000400365
182.52	9.04102	2.09373e-05	157.857	0.000365566
183.013	9.02168	2.06466e-05	157.519	0.000360492
183.549	8.97544	1.78525e-05	156.712	0.000311706
184.02	8.99324	2.38927e-05	157.023	0.000417168
184.511	8.94133	1.94855e-05	156.116	0.000340218
185.001	8.94381	2.28747e-05	156.16	0.000399393
185.513	8.91365	2.08567e-05	155.633	0.000364159
186.04	8.90502	1.91317e-05	155.482	0.000334041
187.357	8.8711	2.0891e-05	154.89	0.000364758
187.543	8.85756	2.15535e-05	154.654	0.000376326
188.034	8.84714	2.10394e-05	154.472	0.00036735
188.544	8.8052	2.04756e-05	153.739	0.000357506
189.025	8.8108	2.52977e-05	153.837	0.000441701
189.501	8.76293	2.55033e-05	153.002	0.000445289
190.041	8.75763	2.28088e-05	152.909	0.000398243
190.54	8.73094	2.06789e-05	152.443	0.000361055
191.016	8.70858	1.82379e-05	152.052	0.000318435
191.517	8.70488	2.25582e-05	151.988	0.000393869
192.088	8.65709	2.28409e-05	151.153	0.000398804
192.525	8.66998	2.11907e-05	151.379	0.000369992
193.018	8.62788	2.14681e-05	150.643	0.000374836
193.553	8.61725	1.67302e-05	150.458	0.000292111
194.01	8.58639	1.77026e-05	149.919	0.000309089
194.524	8.57989	2.28063e-05	149.806	0.0003982
195.018	8.54783	1.96554e-05	149.246	0.000343184
195.511	8.53004	2.34239e-05	148.935	0.000408984
196.061	8.48194	2.00865e-05	148.095	0.000350712
196.567	8.49638	2.39312e-05	148.347	0.00041784
197.724	8.43572	2.32963e-05	147.288	0.000406754
198.02	8.41638	2.02476e-05	146.951	0.000353524
198.508	8.39363	1.88933e-05	146.554	0.000329879
199.044	8.37117	1.81643e-05	146.161	0.000317151
199.53	8.3416	2.08966e-05	145.645	0.000364857
200.023	8.32988	1.90338e-05	145.44	0.000332332
200.505	8.31961	1.88191e-05	145.261	0.000328582
201.031	8.27255	2.49317e-05	144.439	0.000435309
201.512	8.27455	2.16877e-05	144.474	0.000378669
202.055	8.19795	2.06899e-05	143.137	0.000361248
202.543	8.20192	2.14561e-05	143.206	0.000374625
203.028	8.17734	2.08689e-05	142.777	0.000364373
203.531	8.1775	2.17134e-05	142.78	0.000379118
204.024	8.13688	2.16507e-05	142.071	0.000378023
204.522	8.07248	2.11942e-05	140.946	0.000370052
205.003	8.07461	1.97828e-05	140.983	0.000345409
205.557	8.04292	2.23696e-05	140.43	0.000390576
206.038	8.02104	2.46784e-05	140.048	0.000430887
206.517	8.02777	2.45977e-05	140.165	0.000429478
207.025	7.99721	1.96104e-05	139.632	0.000342399
208.121	7.94188	1.86214e-05	138.666	0.00032513
208.522	7.89941	1.98532e-05	137.924	0.000346639
209.04	7.88687	1.89223e-05	137.705	0.000330385
209.557	7.83345	2.27779e-05	136.773	0.000397705
210.032	7.82993	1.88427e-05	136.711	0.000328995
210.526	7.82794	2.22314e-05	136.676	0.000388162
211.051	7.79926	1.70532e-05	136.176	0.00029775
211.535	7.73874	2.20105e-05	135.119	0.000384304
212.048	7.71976	2.15057e-05	134.788	0.000375491
212.502	7.71629	1.7748e-05	134.727	0.000309882
213.043	7.68934	2.20467e-05	134.256	0.000384938
213.517	7.64083	2.0492e-05	133.409	0.000357792
214.019	7.63608	2.3492e-05	133.326	0.000410172
214.514	7.58805	2.03675e-05	132.488	0.000355619
215.003	7.55678	2.10052e-05	131.942	0.000366753
215.547	7.55789	1.70279e-05	131.961	0.000297308
216.034	7.53286	1.92222e-05	131.524	0.00033562
216.506	7.4981	2.29077e-05	130.917	0.00039997
217.043	7.45854	2.5853e-05	130.227	0.000451396
217.524	7.43277	2.15271e-05	129.777	0.000375866
218.502	7.3949	2.43065e-05	129.116	0.000424394
219.028	7.36301	1.76397e-05	128.559	0.00030799
219.511	7.31324	2.08873e-05	127.69	0.000364694
220.004	7.33533	2.32475e-05	128.075	0.000405903
220.528	7.29504	2.30662e-05	127.372	0.000402738
221.017	7.25757	1.86328e-05	126.718	0.00032533
221.551	7.23236	2.1786e-05	126.278	0.000380384
222.025	7.19413	1.98062e-05	125.61	0.000345819
222.522	7.17598	2.04879e-05	125.293	0.000357721
223.05	7.15974	1.9532e-05	125.01	0.00034103
223.53	7.11644	2.43721e-05	124.254	0.000425539
224.052	7.08122	2.28124e-05	123.639	0.000398306
224.536	7.06177	2.23811e-05	123.299	0.000390775
225.058	7.03611	2.04911e-05	122.851	0.000357777
225.539	7.0342	2.2349e-05	122.818	0.000390215
226.028	6.99448	2.09006e-05	122.124	0.000364926
226.515	6.99549	2.25666e-05	122.142	0.000394014
227.044	6.94535	2.11992e-05	121.266	0.00037014
227.529	6.94011	1.82606e-05	121.175	0.000318831
228.023	6.90305	2.29048e-05	120.528	0.000399919
228.967	6.84212	2.1549e-05	119.464	0.000376247
229.015	6.84013	2.12969e-05	119.429	0.000371846
229.516	6.83148	2.23557e-05	119.278	0.000390333
230.025	6.80006	2.16436e-05	118.73	0.000377899
230.55	6.77898	2.39601e-05	118.362	0.000418345
231.036	6.72942	2.39859e-05	117.496	0.000418796
231.534	6.69815	2.58505e-05	116.95	0.000451352
232.001	6.71453	2.00635e-05	117.236	0.000350311
232.548	6.67657	2.04923e-05	116.573	0.000357798
233.027	6.64607	2.07616e-05	116.041	0.000362499
233.523	6.59865	2.33141e-05	115.213	0.000407067
234.043	6.59266	2.16683e-05	115.108	0.000378331
234.521	6.56946	1.7594e-05	114.703	0.000307192
235.047	6.54974	2.28072e-05	114.359	0.000398216
235.521	6.54595	2.03984e-05	114.293	0.000356157
236.015	6.51452	2.85518e-05	113.744	0.000498517
236.511	6.48994	2.36995e-05	113.315	0.000413796
237	6.45372	2.06118e-05	112.682	0.000359884
237.501	6.44635	2.05885e-05	112.554	0.000359478
238.034	6.4038	1.82489e-05	111.811	0.000318628
238.528	6.38377	2.41646e-05	111.461	0.000421915
239.363	6.34966	1.7697e-05	110.866	0.000308991
239.536	6.35213	2.18191e-05	110.909	0.000380963
240.016	6.31436	2.41051e-05	110.249	0.000420877
240.547	6.27981	2.24116e-05	109.646	0.000391308
241.039	6.25921	2.3769e-05	109.286	0.000415009
241.515	6.24792	2.34446e-05	109.089	0.000409345
242.054	6.21248	1.99742e-05	108.47	0.000348751
242.536	6.20565	2.65246e-05	108.351	0.000463122
243.015	6.17759	2.11019e-05	107.861	0.000368441
243.568	6.1389	2.03643e-05	107.186	0.000355562
244.042	6.13939	2.18803e-05	107.194	0.000382031
244.514	6.11078	1.87115e-05	106.695	0.000326704
245.012	6.08008	2.18837e-05	106.159	0.000382092
245.501	6.05363	1.90945e-05	105.697	0.000333391
246.042	6.06006	2.51103e-05	105.809	0.000438428
246.51	6.02226	2.15899e-05	105.149	0.000376962
247.018	6.00773	2.15617e-05	104.896	0.000376469
247.539	5.96289	1.8291e-05	104.112	0.000319363
248.015	5.95439	2.59186e-05	103.964	0.00045254
248.582	5.92891	1.94256e-05	103.519	0.000339173
249.856	5.89406	2.10273e-05	102.911	0.000367138
250	5.885	2.4211e-05	102.753	0.000422727
250.523	5.86409	2.26039e-05	102.387	0.000394665
251.039	5.82722	1.98936e-05	101.744	0.000347344
251.519	5.78392	2.24912e-05	100.988	0.000392698
252.04	5.78625	2.85551e-05	101.028	0.000498574
252.537	5.766	1.93089e-05	100.675	0.000337135
253.045	5.76814	2.06704e-05	100.712	0.000360908
253.513	5.72098	2.05005e-05	99.8888	0.000357941
254.037	5.69001	2.43273e-05	99.348	0.000424757
254.524	5.67524	2.35589e-05	99.0901	0.000411341
255.016	5.64057	2.46149e-05	98.4849	0.000429779
255.546	5.63524	2.68757e-05	98.3917	0.000469253
256.026	5.61303	2.67426e-05	98.004	0.000466928
256.517	5.56852	2.75123e-05	97.2267	0.000480367
257.031	5.55583	2.77249e-05	97.0052	0.000484079
257.508	5.57042	2.19594e-05	97.26	0.000383413
258.056	5.53815	2.77354e-05	96.6965	0.000484261
258.529	5.53024	2.41944e-05	96.5584	0.000422436
259.058	5.51167	1.91131e-05	96.2343	0.000333717
260.297	5.4465	2.33987e-05	95.0964	0.000408543
260.521	5.43299	2.411e-05	94.8604	0.000420962
261.055	5.42397	2.40923e-05	94.7029	0.000420654
261.531	5.42147	2.35216e-05	94.6593	0.000410688
262.007	5.37173	2.30802e-05	93.7908	0.000402982
262.512	5.36496	2.52559e-05	93.6727	0.00044097
263.036	5.33847	2.18199e-05	93.2102	0.000380977
263.511	5.32976	2.71744e-05	93.058	0.000474467
264.013	5.30908	2.70494e-05	92.6969	0.000472284
264.54	5.28837	2.18393e-05	92.3354	0.000381316
265.014	5.27707	2.20866e-05	92.138	0.000385634
265.501	5.26604	2.36903e-05	91.9455	0.000413634
266.034	5.20432	2.02772e-05	90.8678	0.000354041
266.508	5.21798	1.88513e-05	91.1063	0.000329146
267.018	5.19937	2.57891e-05	90.7814	0.00045028
267.527	5.15528	2.49931e-05	90.0115	0.000436381
268.017	5.17889	2.4598e-05	90.4239	0.000429483
268.503	5.13735	1.93455e-05	89.6986	0.000337774
269.046	5.12065	2.11938e-05	89.407	0.000370046
269.525	5.08046	2.35614e-05	88.7053	0.000411384
270.744	5.05337	2.45669e-05	88.2323	0.00042894
271.041	5.05308	2.37081e-05	88.2272	0.000413944
271.519	5.01518	2.50042e-05	87.5654	0.000436575
272.015	5.01738	2.27817e-05	87.6038	0.000397771
272.505	4.98626	2.17552e-05	87.0606	0.000379847
273.061	4.98109	2.13497e-05	86.9702	0.000372767
273.542	4.94934	2.17556e-05	86.4159	0.000379855
274.038	4.93259	2.81263e-05	86.1235	0.000491087
274.51	4.92805	2.38836e-05	86.0441	0.00041701
275.014	4.90692	2.38456e-05	85.6752	0.000416346
275.545	4.90821	2.35196e-05	85.6978	0.000410654
276.056	4.88769	2.32603e-05	85.3395	0.000406126
276.505	4.8918	2.42765e-05	85.4113	0.00042387
277.051	4.8053	2.37695e-05	83.9009	0.000415017
277.53	4.82949	2.31403e-05	84.3234	0.000404032
278.027	4.81462	2.33813e-05	84.0636	0.00040824
278.507	4.77365	2.05607e-05	83.3483	0.000358991
279.059	4.76266	2.04629e-05	83.1564	0.000357284
279.542	4.75974	2.29023e-05	83.1054	0.000399875
280.025	4.7132	2.92146e-05	82.2929	0.000510089
281.089	4.67647	2.22476e-05	81.6515	0.000388446
281.51	4.66923	2.58408e-05	81.5252	0.000451183
282.014	4.66474	2.17926e-05	81.4467	0.000380501
282.521	4.67029	2.65383e-05	81.5437	0.000463361
283.035	4.64424	2.21941e-05	81.0888	0.000387511
283.526	4.61629	2.7477e-05	80.6008	0.00047975
284.019	4.57461	2.52415e-05	79.8731	0.000440718
284.548	4.57717	2.51422e-05	79.9177	0.000438984
285.016	4.57132	2.71182e-05	79.8157	0.000473486
285.523	4.58271	2.78504e-05	80.0145	0.00048627
286.008	4.53231	2.63124e-05	79.1344	0.000459417
286.556	4.51694	2.33242e-05	78.8662	0.000407242
287.054	4.5062	2.90387e-05	78.6786	0.000507019
287.545	4.47855	2.63203e-05	78.1958	0.000459555
288.045	4.46946	2.54747e-05	78.0372	0.00044479
288.537	4.44492	2.25393e-05	77.6087	0.000393538
289.011	4.43051	2.30222e-05	77.357	0.00040197
289.545	4.42785	1.61192e-05	77.3107	0.000281442
290.026	4.39795	2.30985e-05	76.7886	0.000403302
290.505	4.40943	2.04486e-05	76.9889	0.000357035
291.557	4.34836	2.25431e-05	75.9227	0.000393604
292.002	4.33493	3.07447e-05	75.6883	0.000536805
292.536	4.35742	2.12136e-05	76.0809	0.000370391
293.017	4.29461	2.31153e-05	74.9842	0.000403595
293.545	4.31744	2.64789e-05	75.3828	0.000462323
294.029	4.27162	1.83436e-05	74.5828	0.00032028
294.524	4.2442	2.38036e-05	74.104	0.000415612
295.017	4.22593	2.21342e-05	73.7851	0.000386464
295.506	4.21801	2.60485e-05	73.6468	0.000454808
296.011	4.22458	2.42863e-05	73.7616	0.000424041
296.549	4.18437	2.68075e-05	73.0595	0.000468062
297.026	4.16699	2.36574e-05	72.7559	0.000413059
297.559	4.1741	2.18745e-05	72.8802	0.00038193
298.002	4.18974	2.41629e-05	73.1532	0.000421886
298.53	4.09211	2.08023e-05	71.4486	0.00036321
299.03	4.14206	2.00006e-05	72.3208	0.000349211
299.508	4.14679	2.9044e-05	72.4034	0.000507111
300.036	4.11986	2.00603e-05	71.933	0.000350254
300.507	4.10088	2.86217e-05	71.6016	0.000499737
301.027	4.04096	2.79772e-05	70.5555	0.000488484
301.914	4.04486	2.19779e-05	70.6236	0.000383735
302.042	4.06578	2.14443e-05	70.9889	0.000374419
302.533	3.99925	2.37858e-05	69.8272	0.000415302
303.018	4.03592	2.29919e-05	70.4676	0.000401441
303.503	3.98559	2.4257e-05	69.5887	0.000423529
304.043	4.01276	2.43249e-05	70.0631	0.000424715
304.519	3.98834	3.01636e-05	69.6367	0.000526659
305.022	3.98939	2.46017e-05	69.655	0.000429548
305.507	3.94606	2.30674e-05	68.8986	0.000402759
306.057	3.93584	2.55753e-05	68.72	0.000446547
306.544	3.91861	2.38147e-05	68.4193	0.000415807
307.037	3.91285	2.32076e-05	68.3187	0.000405206
307.505	3.89385	2.10952e-05	67.987	0.000368324
308.053	3.90934	2.75138e-05	68.2574	0.000480393
308.557	3.87586	2.18272e-05	67.6729	0.000381104
309.007	3.85102	2.1844e-05	67.2391	0.000381397
309.539	3.87138	2.62591e-05	67.5946	0.000458485
310.014	3.8597	1.8813e-05	67.3907	0.000328477
310.558	3.83289	2.35316e-05	66.9226	0.000410864
311.052	3.80724	2.83752e-05	66.4748	0.000495433
311.5	3.78386	2.58018e-05	66.0665	0.000450502
312.322	3.77526	2.17418e-05	65.9164	0.000379614
312.508	3.76262	2.44689e-05	65.6956	0.000427229
313.009	3.7487	2.7344e-05	65.4526	0.000477428
313.548	3.74849	2.76539e-05	65.4489	0.000482839
314.023	3.68998	2.68934e-05	64.4273	0.000469561
314.539	3.71587	2.52341e-05	64.8794	0.00044059
315.011	3.72305	2.72531e-05	65.0048	0.000475841
315.503	3.69965	2.82124e-05	64.5963	0.000492591
316.056	3.69154	2.48562e-05	64.4546	0.000433991
316.528	3.67754	2.77561e-05	64.2101	0.000484623
317.02	3.66328	2.18383e-05	63.9612	0.000381299
317.516	3.61527	2.68703e-05	63.123	0.000469158
318.056	3.58773	2.95985e-05	62.6421	0.000516793
318.538	3.601	2.48481e-05	62.8738	0.00043385
319.026	3.62875	2.01754e-05	63.3583	0.000352265
319.502	3.57988	2.69041e-05	62.505	0.000469748
320.002	3.59937	2.77605e-05	62.8453	0.000484701
320.537	3.56427	2.68713e-05	62.2324	0.000469174
321.008	3.53493	2.9551e-05	61.7201	0.000515962
321.538	3.54372	3.01361e-05	61.8735	0.000526178
322.711	3.50078	2.51701e-05	61.1239	0.000439472
323.042	3.48576	2.67596e-05	60.8616	0.000467224
323.518	3.45995	2.17394e-05	60.4111	0.000379572
324.006	3.48882	2.66679e-05	60.9151	0.000465624
324.53	3.48355	2.15156e-05	60.823	0.000375665
325.0112	3.46554	2.71173e-05	60.5086	0.00047347
325.553	3.42663	3.07891e-05	59.8293	0.00053758
326.037	3.40239	2.14543e-05	59.406	0.000374594
326.519	3.44437	2.28023e-05	60.139	0.000398131
327.008	3.40772	2.68856e-05	59.4991	0.000469424
327.567	3.38318	2.59713e-05	59.0705	0.000453462
328.026	3.3723	2.32204e-05	58.8806	0.00040543
328.562	3.3759	2.35184e-05	58.9434	0.000410633
329.051	3.35773	2.46916e-05	58.6262	0.000431117
329.528	3.37087	2.58472e-05	58.8557	0.000451294
330.006	3.34728	2.45949e-05	58.4438	0.000429428
330.502	3.31801	2.82437e-05	57.9328	0.000493137
331.053	3.33353	2.79691e-05	58.2038	0.000488343
331.548	3.28364	1.92542e-05	57.3325	0.000336179
332.028	3.28405	3.08867e-05	57.3398	0.000539284
333.14	3.29438	2.80912e-05	57.5201	0.000490475
333.527	3.2714	2.58245e-05	57.119	0.000450899
334.042	3.24411	2.54546e-05	56.6424	0.000444439
334.508	3.25218	2.57948e-05	56.7834	0.00045038
335.035	3.27057	2.8675e-05	57.1043	0.000500667
335.534	3.1899	2.67392e-05	55.696	0.000466868
336.018	3.17281	3.34632e-05	55.3975	0.00058427
336.56	3.16939	2.28439e-05	55.3378	0.000398856
337.013	3.18155	2.52713e-05	55.5502	0.000441239
337.554	3.18269	2.75304e-05	55.5701	0.000480682
338.033	3.17185	2.70497e-05	55.3808	0.000472289
338.525	3.15372	2.43309e-05	55.0642	0.00042482
339.015	3.154	2.40254e-05	55.069	0.000419485
339.506	3.13209	2.50616e-05	54.6865	0.000437577
340.002	3.1554	2.19184e-05	55.0936	0.000382697
340.56	3.09656	2.67769e-05	54.0662	0.000467526
341.03	3.09745	2.77938e-05	54.0817	0.000485281
341.516	3.10673	2.67757e-05	54.2437	0.000467507
342.04	3.0761	2.79638e-05	53.709	0.000488251
342.547	3.10298	2.9936e-05	54.1784	0.000522685
343.533	3.05937	2.44656e-05	53.4168	0.000427172
344.057	3.06683	2.6102e-05	53.547	0.000455743
344.5513	3.04214	3.30415e-05	53.1159	0.000576908
345.025	3.04075	3.04403e-05	53.0917	0.000531491
345.527	3.04005	2.54696e-05	53.0795	0.000444701
346.013	2.95873	2.39963e-05	51.6597	0.000418978
346.545	2.95866	2.43125e-05	51.6585	0.000424498
347.036	2.97222	2.55323e-05	51.8952	0.000445795
347.514	2.97138	2.80194e-05	51.8806	0.000489221
348.002	2.93192	3.20999e-05	51.1916	0.000560467
348.542	2.94052	2.58559e-05	51.3416	0.000451445
349.005	2.93383	2.59716e-05	51.2249	0.000453467
349.5	2.88425	2.95972e-05	50.3592	0.00051677
349.775	2.93954	2.49367e-05	51.3245	0.000435397