File: data/monolayers/nanoparticles/Ol_CoFe_C/vsm/Backup/ZFCFC/DD67_ZFC_LangevinSAXSscaled.xye
#Executed at: 2018-11-12 10:16:50.8973
#Loaded File	 = ./DD172_6_ZFCw_100OE.DAT
#Rescale Factor	 = 0.0572735
#[[Data]]
#T/K	M/kAm-1	sM/kAm-1	M_raw/memu	sM_raw/memu
10.0076	0.272044	1.88183e-05	4.7499	0.00032857
10.0245	0.256696	1.79795e-05	4.48194	0.000313924
10.5749	0.269547	1.88536e-05	4.7063	0.000329186
11.0628	0.265329	2.03589e-05	4.63267	0.000355468
11.5462	0.259671	1.40944e-05	4.53388	0.000246089
12.0512	0.273789	1.77982e-05	4.78037	0.000310758
12.5212	0.29002	1.66116e-05	5.06378	0.00029004
13.0414	0.270584	1.80042e-05	4.72442	0.000314355
13.548	0.254408	1.54294e-05	4.44199	0.000269399
14.0219	0.272155	1.49368e-05	4.75185	0.000260798
14.5165	0.259238	1.48351e-05	4.52632	0.000259022
15.0079	0.288898	1.62063e-05	5.04418	0.000282964
15.507	0.282056	1.72328e-05	4.92473	0.000300886
16.0508	0.276249	2.07695e-05	4.82334	0.000362638
16.5089	0.276299	2.22551e-05	4.8242	0.000388576
17.0269	0.271551	1.78319e-05	4.74131	0.000311346
17.5352	0.261517	1.81021e-05	4.56611	0.000316065
18.0528	0.274414	1.88092e-05	4.79129	0.000328411
18.5051	0.278234	1.68859e-05	4.85799	0.000294829
19.0307	0.286024	1.78869e-05	4.99399	0.000312308
19.5309	0.264821	2.14982e-05	4.6238	0.000375361
20.0321	0.297266	1.96633e-05	5.19028	0.000343323
20.8696	0.269472	1.81956e-05	4.70501	0.000317696
21.0509	0.307488	1.98112e-05	5.36876	0.000345905
21.5052	0.304103	1.87974e-05	5.30966	0.000328205
22.0009	0.297028	1.97936e-05	5.18613	0.000345597
22.5474	0.29635	1.91889e-05	5.1743	0.000335039
23.0357	0.307478	1.60255e-05	5.36859	0.000279806
23.5484	0.305898	1.95179e-05	5.341	0.000340785
24.0085	0.285627	1.65349e-05	4.98707	0.0002887
24.5476	0.30391	1.74758e-05	5.3063	0.000305129
25.0076	0.299507	1.61817e-05	5.22942	0.000282534
25.5581	0.309256	1.74611e-05	5.39964	0.000304872
26.0006	0.302307	1.78743e-05	5.2783	0.000312086
26.5266	0.315451	2.01702e-05	5.5078	0.000352173
27.0556	0.309657	1.79265e-05	5.40664	0.000312998
27.5597	0.321339	1.86459e-05	5.6106	0.000325558
28.01	0.324865	1.98634e-05	5.67217	0.000346816
28.5444	0.317272	1.84656e-05	5.5396	0.000322412
29.0529	0.322042	1.92672e-05	5.62288	0.000336406
29.5072	0.327721	1.78532e-05	5.72203	0.000311718
30.002	0.324812	1.69062e-05	5.67125	0.000295183
31.295	0.327527	2.01752e-05	5.71865	0.00035226
31.5384	0.326829	1.52006e-05	5.70646	0.000265404
32.0569	0.338745	1.59361e-05	5.91452	0.000278245
32.5209	0.337166	1.7583e-05	5.88695	0.000307
33.0388	0.353331	1.703e-05	6.16918	0.000297346
33.5601	0.357608	1.64069e-05	6.24386	0.000286466
34.0544	0.327088	1.66779e-05	5.71098	0.000291197
34.5555	0.349924	1.87912e-05	6.1097	0.000328096
35.0249	0.35837	1.5991e-05	6.25717	0.000279204
35.5421	0.361003	1.8405e-05	6.30314	0.000321353
36.0545	0.339027	1.60556e-05	5.91945	0.000280332
36.5515	0.357072	1.90739e-05	6.23451	0.000333031
37.0692	0.364281	1.86655e-05	6.36037	0.0003259
37.5181	0.351136	1.81239e-05	6.13087	0.000316445
38.0185	0.353248	1.82114e-05	6.16773	0.000317973
38.5752	0.356438	1.80017e-05	6.22343	0.000314312
39.049	0.348649	1.43592e-05	6.08745	0.000250713
39.5504	0.346119	1.55727e-05	6.04327	0.000271901
40.0102	0.35813	1.69111e-05	6.25297	0.00029527
40.5293	0.384795	1.82406e-05	6.71856	0.000318483
41.6761	0.359035	1.82511e-05	6.26879	0.000318665
42.0532	0.400406	1.82032e-05	6.99111	0.000317829
42.5121	0.367422	1.80666e-05	6.41523	0.000315445
43.0034	0.384735	1.81518e-05	6.71751	0.000316932
43.5158	0.366274	1.96088e-05	6.39517	0.000342371
44.0023	0.377835	1.7752e-05	6.59702	0.000309951
44.5687	0.387069	1.801e-05	6.75826	0.000314455
45.0045	0.383333	1.89853e-05	6.69303	0.000331485
45.5933	0.374116	1.81174e-05	6.53209	0.000316332
46.0704	0.383587	1.71674e-05	6.69746	0.000299744
46.5639	0.374315	1.99335e-05	6.53557	0.00034804
47.0615	0.400858	1.90807e-05	6.99901	0.00033315
47.5588	0.382859	2.02676e-05	6.68475	0.000353875
48.0317	0.400842	1.36719e-05	6.99874	0.000238713
48.5275	0.409427	1.95988e-05	7.14863	0.000342196
49.0497	0.387924	2.17573e-05	6.77319	0.000379885
49.5138	0.390436	2.00072e-05	6.81705	0.000349327
50.0253	0.407365	1.34929e-05	7.11263	0.000235586
50.5146	0.388015	1.57527e-05	6.77477	0.000275043
51.0028	0.393392	1.70607e-05	6.86866	0.000297881
52.1152	0.40292	1.67442e-05	7.03501	0.000292355
52.5419	0.407526	1.81194e-05	7.11543	0.000316366
53.0339	0.413153	1.73569e-05	7.21368	0.000303052
53.5165	0.414632	1.8442e-05	7.23951	0.000321999
54.0006	0.407099	1.70626e-05	7.10798	0.000297914
54.5349	0.410286	1.85982e-05	7.16363	0.000324726
55.0379	0.410658	1.56274e-05	7.17011	0.000272856
55.5284	0.426035	1.93982e-05	7.43861	0.000338695
56.005	0.429271	1.97055e-05	7.49511	0.000344059
56.5702	0.404317	1.96827e-05	7.05941	0.000343662
57.0158	0.423552	1.86712e-05	7.39525	0.000326001
57.5772	0.432695	1.90746e-05	7.55489	0.000333044
58.0603	0.423185	1.71219e-05	7.38885	0.000298949
58.528	0.425143	1.40524e-05	7.42303	0.000245357
59.0519	0.417185	1.95754e-05	7.28408	0.000341788
59.5342	0.432362	1.63818e-05	7.54908	0.000286027
60.0133	0.43538	1.74032e-05	7.60176	0.000303862
60.5322	0.418588	1.86805e-05	7.30859	0.000326163
61.0532	0.431619	1.84281e-05	7.5361	0.000321756
61.5024	0.438209	1.86539e-05	7.65116	0.000325698
62.5424	0.42719	1.74953e-05	7.45877	0.000305469
63.01	0.446744	1.90495e-05	7.80019	0.000332605
63.5003	0.443419	2.01115e-05	7.74213	0.000351148
64.0113	0.436149	1.79676e-05	7.6152	0.000313715
64.5108	0.442958	1.9921e-05	7.73408	0.000347822
65.0189	0.44679	1.97224e-05	7.801	0.000344355
65.5005	0.437412	1.66217e-05	7.63724	0.000290216
66.0529	0.459867	1.7823e-05	8.02932	0.000311191
66.5039	0.445597	1.639e-05	7.78015	0.000286171
67.0021	0.444881	1.85452e-05	7.76766	0.000323801
67.505	0.458927	1.83167e-05	8.0129	0.000319811
68.0076	0.459893	1.92253e-05	8.02977	0.000335675
68.52034	0.451376	1.91316e-05	7.88106	0.000334039
69.0094	0.442385	2.00121e-05	7.72408	0.000349413
69.5156	0.460662	2.09533e-05	8.04319	0.000365847
70.0246	0.463449	2.00715e-05	8.09185	0.00035045
70.5184	0.485291	1.90505e-05	8.47322	0.000332623
71.0247	0.459067	1.61305e-05	8.01534	0.000281639
71.5175	0.470435	1.93024e-05	8.21383	0.000337022
72.0124	0.470646	2.10843e-05	8.21751	0.000368133
72.8473	0.481776	1.83114e-05	8.41184	0.000319719
73.0354	0.48431	2.30683e-05	8.45609	0.000402774
73.5475	0.502443	1.73531e-05	8.7727	0.000302986
74.0464	0.483811	1.69256e-05	8.44738	0.000295523
74.5381	0.467367	1.92021e-05	8.16026	0.00033527
75.0375	0.503783	2.17458e-05	8.79609	0.000379684
75.5916	0.482706	1.94646e-05	8.42809	0.000339853
76.0242	0.491883	1.85056e-05	8.58831	0.000323109
76.515	0.479524	2.11068e-05	8.37253	0.000368527
77.0535	0.487853	1.785e-05	8.51796	0.000311662
77.5137	0.493442	1.68018e-05	8.61554	0.000293361
78.0964	0.516478	2.24849e-05	9.01774	0.000392589
78.6215	0.498967	1.96888e-05	8.712	0.000343769
79.0392	0.510026	2.04395e-05	8.9051	0.000356876
79.5481	0.502663	1.90536e-05	8.77654	0.000332677
80.1435	0.497544	2.09527e-05	8.68716	0.000365836
80.5616	0.504197	1.66508e-05	8.80332	0.000290724
81.0687	0.514489	1.97358e-05	8.98301	0.000344588
81.545	0.508487	2.25521e-05	8.87823	0.000393762
82.0656	0.517652	1.67129e-05	9.03825	0.000291808
83.4833	0.510859	1.84027e-05	8.91963	0.000321313
83.5589	0.52754	1.52924e-05	9.21088	0.000267006
84.0047	0.537676	1.75367e-05	9.38787	0.000306191
84.5607	0.52162	1.98242e-05	9.10753	0.000346132
85.0403	0.540274	1.64412e-05	9.43324	0.000287066
85.5694	0.537375	1.70899e-05	9.38262	0.000298391
86.0272	0.545737	1.88663e-05	9.52861	0.000329408
86.6062	0.530947	1.91604e-05	9.27037	0.000334542
87.0449	0.528182	2.12467e-05	9.22209	0.000370969
87.5331	0.545004	1.79162e-05	9.51581	0.000312818
88.0462	0.560312	2.13378e-05	9.7831	0.000372559
88.5373	0.564504	1.68187e-05	9.85628	0.000293657
89.0848	0.552513	1.75885e-05	9.64692	0.000307097
89.547	0.565577	1.84337e-05	9.87501	0.000321855
90.0482	0.531645	1.87415e-05	9.28257	0.000327228
90.534	0.58126	2.01957e-05	10.1488	0.000352619
91.0161	0.578615	2.12456e-05	10.1027	0.00037095
91.5101	0.581754	1.7254e-05	10.1575	0.000301256
92.0087	0.566927	1.94131e-05	9.89859	0.000338954
92.5051	0.583939	1.86952e-05	10.1956	0.00032642
93.974	0.602145	1.81975e-05	10.5135	0.00031773
94.0587	0.59179	1.89693e-05	10.3327	0.000331205
94.5368	0.573077	1.77937e-05	10.006	0.000310679
95.0115	0.574052	1.85078e-05	10.023	0.000323147
95.5368	0.57518	1.89772e-05	10.0427	0.000331344
96.0555	0.602049	1.86006e-05	10.5118	0.000324768
96.5463	0.588993	2.19603e-05	10.2839	0.000383429
97.0099	0.601895	1.87352e-05	10.5091	0.000327117
97.5356	0.594588	2.12311e-05	10.3815	0.000370697
98.0322	0.605487	2.54245e-05	10.5719	0.000443913
98.5046	0.618927	1.9821e-05	10.8065	0.000346076
99.0042	0.610756	1.95215e-05	10.6639	0.000340847
99.5459	0.614371	1.82573e-05	10.727	0.000318775
100.008	0.6139	1.9568e-05	10.7187	0.000341659
100.51	0.616555	1.62977e-05	10.7651	0.000284558
101.028	0.626281	2.10019e-05	10.9349	0.000366696
101.52	0.627969	1.58795e-05	10.9644	0.000277258
102.071	0.637527	2.06981e-05	11.1313	0.000361391
102.523	0.607443	1.96657e-05	10.606	0.000343365
103.02	0.644761	1.82073e-05	11.2576	0.000317902
104.208	0.635766	1.98632e-05	11.1005	0.000346813
104.531	0.646317	2.10236e-05	11.2847	0.000367074
105.02	0.650019	1.62048e-05	11.3494	0.000282937
105.526	0.640938	2.05596e-05	11.1908	0.000358971
106.016	0.652315	2.33137e-05	11.3895	0.000407059
106.518	0.648779	2.27371e-05	11.3277	0.000396991
107.01	0.674135	1.85822e-05	11.7705	0.000324446
107.5	0.665262	2.0394e-05	11.6155	0.000356081
108.045	0.657094	1.98935e-05	11.4729	0.000347342
108.574	0.659035	1.94228e-05	11.5068	0.000339124
109.03	0.669442	1.96826e-05	11.6885	0.00034366
109.567	0.687713	2.00263e-05	12.0075	0.00034966
110.043	0.677961	1.9213e-05	11.8373	0.00033546
110.533	0.700273	1.84793e-05	12.2268	0.00032265
111.015	0.687003	2.33222e-05	11.9951	0.000407207
111.518	0.683642	1.88046e-05	11.9365	0.000328329
112.05	0.700793	1.86897e-05	12.2359	0.000326324
112.551	0.681477	1.9553e-05	11.8986	0.000341397
113.022	0.694881	1.82762e-05	12.1327	0.000319105
113.518	0.719549	1.90333e-05	12.5634	0.000332324
114.618	0.710217	2.12879e-05	12.4004	0.000371688
115.035	0.724675	1.76328e-05	12.6529	0.000307869
115.508	0.709424	1.89622e-05	12.3866	0.000331082
116.006	0.734805	1.96901e-05	12.8298	0.000343791
116.529	0.734109	2.16821e-05	12.8176	0.000378571
117.026	0.745016	1.87983e-05	13.008	0.00032822
117.522	0.742355	2.14212e-05	12.9616	0.000374017
118.046	0.750343	1.80011e-05	13.101	0.0003143
118.504	0.75186	2.09518e-05	13.1275	0.00036582
119.019	0.757433	1.97334e-05	13.2248	0.000344546
119.51	0.772328	1.86628e-05	13.4849	0.000325854
120.009	0.766621	1.88753e-05	13.3853	0.000329564
120.503	0.767364	2.25412e-05	13.3982	0.000393571
121.059	0.79228	2.02069e-05	13.8333	0.000352815
121.561	0.778409	2.12984e-05	13.5911	0.000371872
122.055	0.787585	2.05198e-05	13.7513	0.000358276
122.537	0.788608	1.74364e-05	13.7692	0.000304442
123.023	0.788526	1.89943e-05	13.7677	0.000331642
123.515	0.808197	2.01676e-05	14.1112	0.000352127
124.009	0.813174	1.78845e-05	14.1981	0.000312265
125.027	0.823257	1.97836e-05	14.3741	0.000345423
125.509	0.827245	1.66513e-05	14.4438	0.000290734
126.061	0.846669	1.90302e-05	14.7829	0.000332268
126.512	0.843818	1.71866e-05	14.7331	0.000300079
127.055	0.859028	1.76538e-05	14.9987	0.000308237
127.556	0.857824	2.10998e-05	14.9777	0.000368404
128.005	0.844948	2.1889e-05	14.7529	0.000382184
128.522	0.875179	2.26201e-05	15.2807	0.00039495
129.023	0.872961	1.97387e-05	15.242	0.000344639
129.529	0.878452	1.89268e-05	15.3378	0.000330463
130.024	0.903371	2.06263e-05	15.7729	0.000360136
130.5	0.911818	1.96378e-05	15.9204	0.000342878
131.054	0.902197	2.10197e-05	15.7524	0.000367006
131.546	0.928174	2.12255e-05	16.206	0.000370599
132.019	0.936328	1.77121e-05	16.3484	0.000309254
132.561	0.942605	2.16936e-05	16.458	0.000378773
133.005	0.944828	1.96032e-05	16.4968	0.000342273
133.549	0.961281	1.75943e-05	16.784	0.000307198
134.052	0.972413	2.03004e-05	16.9784	0.000354447
134.55	0.966199	1.98806e-05	16.8699	0.000347117
135.404	0.992423	2.02081e-05	17.3278	0.000352835
135.524	1.00116	1.70714e-05	17.4804	0.000298067
136.012	0.989599	1.90988e-05	17.2785	0.000333466
136.503	1.0224	2.22013e-05	17.8513	0.000387637
137.057	1.03437	2.01982e-05	18.0602	0.000352662
137.556	1.05184	2.19716e-05	18.3653	0.000383625
138.031	1.04068	1.89665e-05	18.1703	0.000331157
138.501	1.05738	1.77441e-05	18.462	0.000309813
139.053	1.0868	1.96566e-05	18.9756	0.000343207
139.534	1.08173	2.35729e-05	18.8871	0.000411585
140.029	1.08423	1.82543e-05	18.9307	0.000318722
140.527	1.11758	2.03713e-05	19.513	0.000355685
141.024	1.1392	1.86573e-05	19.8905	0.000325757
141.502	1.14718	1.73997e-05	20.0299	0.0003038
142.0513	1.14628	1.93867e-05	20.0142	0.000338493
142.522	1.18149	2.02095e-05	20.629	0.00035286
143.028	1.1899	1.81551e-05	20.7757	0.000316989
143.528	1.20546	2.19055e-05	21.0474	0.000382472
144.014	1.24273	2.09867e-05	21.6982	0.00036643
144.514	1.2447	1.69417e-05	21.7326	0.000295803
145.756	1.30256	2.16279e-05	22.7427	0.000377624
146.027	1.30783	1.8984e-05	22.8348	0.000331463
146.532	1.31614	1.70762e-05	22.9799	0.000298152
147.043	1.35457	1.64982e-05	23.6509	0.000288061
147.546	1.36707	1.954e-05	23.8692	0.000341171
148.003	1.38877	1.80207e-05	24.248	0.000314642
148.525	1.42278	1.83155e-05	24.8418	0.000319791
149.013	1.4263	2.1159e-05	24.9034	0.000369437
149.542	1.47535	2.08588e-05	25.7598	0.000364196
150.043	1.49205	2.2959e-05	26.0513	0.000400867
150.547	1.51276	1.97361e-05	26.4129	0.000344595
151.048	1.53161	1.70997e-05	26.742	0.000298562
151.544	1.5794	2.00443e-05	27.5764	0.000349975
152.016	1.57749	1.97101e-05	27.5431	0.00034414
152.52	1.62868	2.09409e-05	28.4368	0.000365629
153.013	1.65944	1.76884e-05	28.974	0.000308841
153.505	1.67196	1.65074e-05	29.1925	0.00028822
154.049	1.69739	2.24651e-05	29.6366	0.000392242
154.531	1.74317	1.76024e-05	30.4358	0.000307339
155.015	1.77124	2.31704e-05	30.9259	0.000404558
156.16	1.86469	1.66555e-05	32.5576	0.000290807
156.54	1.89485	2.06893e-05	33.0842	0.000361236
157.015	1.91796	1.81427e-05	33.4877	0.000316774
157.501	1.9356	2.09621e-05	33.7957	0.000366
158.048	1.99716	1.89972e-05	34.8706	0.000331693
158.549	2.04122	2.02834e-05	35.6398	0.00035415
159.033	2.08253	2.0172e-05	36.3611	0.000352204
159.521	2.09379	1.88597e-05	36.5577	0.000329292
160.014	2.13116	2.15488e-05	37.2102	0.000376245
160.533	2.16939	2.0724e-05	37.8776	0.000361843
161.046	2.22119	2.01662e-05	38.7822	0.000352103
161.54	2.26934	2.10995e-05	39.6229	0.000368399
162.025	2.31594	2.3102e-05	40.4364	0.000403363
162.514	2.35264	1.60287e-05	41.0773	0.000279862
163.014	2.41835	1.89638e-05	42.2247	0.00033111
163.521	2.44738	1.95826e-05	42.7315	0.000341913
164.046	2.47391	2.35792e-05	43.1946	0.000411695
164.518	2.52541	2.04192e-05	44.0939	0.000356521
165.021	2.55881	2.0667e-05	44.677	0.000360847
165.538	2.60709	1.96401e-05	45.5199	0.000342918
166.646	2.73693	2.19222e-05	47.7871	0.000382763
167.007	2.77387	2.0882e-05	48.432	0.000364601
167.51	2.82181	2.00539e-05	49.2691	0.000350144
168.007	2.86335	2.32911e-05	49.9943	0.000406665
168.501	2.9087	2.10214e-05	50.7862	0.000367036
169.046	2.95629	1.85842e-05	51.6171	0.000324481
169.536	3.0413	2.06933e-05	53.1013	0.000361307
170.008	3.05211	1.67194e-05	53.2902	0.000291922
170.541	3.11857	2.11525e-05	54.4504	0.000369325
171.04	3.17984	2.06159e-05	55.5203	0.000359956
171.518	3.22297	1.92797e-05	56.2733	0.000336626
172.016	3.27724	1.42266e-05	57.2208	0.000248398
172.561	3.34229	2.14533e-05	58.3566	0.000374576
173.041	3.39842	2.00653e-05	59.3366	0.000350342
173.526	3.47003	2.09298e-05	60.587	0.000365436
174.092	3.49946	2.16581e-05	61.1008	0.000378153
174.544	3.54728	2.13671e-05	61.9358	0.000373072
175.044	3.61658	2.08752e-05	63.1457	0.000364483
175.544	3.66195	2.24375e-05	63.938	0.000391761
176.006	3.72363	1.92441e-05	65.0148	0.000336004
177.018	3.82676	2.26901e-05	66.8155	0.000396171
177.564	3.90525	1.69942e-05	68.186	0.00029672
178.002	3.9536	1.77691e-05	69.0303	0.00031025
178.516	4.00521	2.3398e-05	69.9313	0.000408531
179.021	4.06147	2.20696e-05	70.9136	0.000385336
179.513	4.09832	2.07057e-05	71.557	0.000361523
180.016	4.17339	1.99017e-05	72.8677	0.000347484
180.554	4.22736	2.12377e-05	73.81	0.000370812
181.056	4.28849	2.11572e-05	74.8774	0.000369406
181.555	4.34194	2.39453e-05	75.8106	0.000418087
182.034	4.40244	1.98245e-05	76.867	0.000346138
182.53	4.47196	2.13835e-05	78.0807	0.000373357
183.027	4.51243	2.19435e-05	78.7874	0.000383135
183.525	4.56919	1.93165e-05	79.7784	0.000337267
184.006	4.62682	2.19308e-05	80.7846	0.000382913
184.56	4.68108	2.41861e-05	81.732	0.000422291
185.054	4.74006	2.28343e-05	82.7617	0.000398689
185.549	4.7864	1.99702e-05	83.5708	0.000348681
186.032	4.87029	1.9219e-05	85.0356	0.000335565
186.541	4.88415	2.42815e-05	85.2776	0.000423956
187.498	5.02337	2.24261e-05	87.7085	0.000391562
187.556	5.00818	2.07498e-05	87.4432	0.000362293
188.054	5.07323	1.83778e-05	88.579	0.000320878
188.543	5.1052	1.95358e-05	89.1372	0.000341096
189.051	5.17207	1.95415e-05	90.3047	0.000341197
189.537	5.22263	2.15435e-05	91.1876	0.000376151
190.009	5.25094	2.13781e-05	91.6819	0.000373264
190.552	5.33261	2.01275e-05	93.1077	0.000351428
191.044	5.35168	2.34617e-05	93.4408	0.000409643
191.527	5.40764	1.8804e-05	94.4179	0.00032832
192.005	5.45003	2.10513e-05	95.1579	0.000367557
192.502	5.4896	2.36758e-05	95.8489	0.000413382
193.066	5.56448	2.32532e-05	97.1563	0.000406003
193.514	5.58112	2.14121e-05	97.4468	0.000373858
194.023	5.65232	2.09955e-05	98.69	0.000366584
194.518	5.65827	2.17821e-05	98.7938	0.000380317
195.004	5.72224	2.28366e-05	99.9107	0.000398728
195.501	5.77676	2.2204e-05	100.863	0.000387684
196.003	5.8065	2.30172e-05	101.382	0.000401882
196.502	5.84617	1.68077e-05	102.075	0.000293463
197.005	5.89335	1.80608e-05	102.898	0.000315343
197.877	5.97263	1.66908e-05	104.283	0.000291422
198.046	5.99791	2.29463e-05	104.724	0.000400645
198.545	6.01208	2.33271e-05	104.971	0.000407293
199.026	6.05992	2.25484e-05	105.807	0.000393697
199.527	6.08381	2.08725e-05	106.224	0.000364435
200.005	6.12335	2.19108e-05	106.914	0.000382564
200.5	6.14732	2.3653e-05	107.333	0.000412984
201.001	6.17125	2.27334e-05	107.75	0.000396928
201.515	6.21332	1.6969e-05	108.485	0.000296279
202.005	6.24024	2.39319e-05	108.955	0.000417854
202.508	6.26027	2.31345e-05	109.305	0.00040393
203.026	6.31815	2.29182e-05	110.315	0.000400153
203.549	6.33527	2.52745e-05	110.614	0.000441294
204.05	6.3522	2.55737e-05	110.91	0.000446518
204.539	6.37586	2.19738e-05	111.323	0.000383664
205.026	6.39717	2.21642e-05	111.695	0.000386989
205.564	6.44208	2.03869e-05	112.479	0.000355958
206.004	6.45786	1.93358e-05	112.755	0.000337604
206.549	6.46556	2.19156e-05	112.889	0.000382648
207.026	6.4801	2.19402e-05	113.143	0.000383077
208.269	6.54943	2.15014e-05	114.354	0.000375416
208.518	6.54943	2.17952e-05	114.354	0.000380546
209.009	6.56963	2.2037e-05	114.706	0.000384767
209.532	6.59046	2.74916e-05	115.07	0.000480005
210.037	6.60023	2.0573e-05	115.241	0.000359206
210.528	6.62446	2.15849e-05	115.664	0.000376874
211.03	6.63457	1.80017e-05	115.84	0.000314311
211.517	6.63992	2.46035e-05	115.934	0.000429579
212.001	6.65885	1.94589e-05	116.264	0.000339754
212.535	6.65713	2.25248e-05	116.234	0.000393284
213.019	6.67394	2.11851e-05	116.528	0.000369893
213.508	6.67578	2.39351e-05	116.56	0.000417908
214.05	6.6841	1.80393e-05	116.705	0.000314967
214.553	6.67302	2.23637e-05	116.511	0.000390471
215.031	6.68817	2.24916e-05	116.776	0.000392706
215.52	6.70817	2.26444e-05	117.125	0.000395372
216.015	6.69704	2.69107e-05	116.931	0.000469864
216.503	6.70327	2.13786e-05	117.04	0.000373272
217.05	6.69037	2.31194e-05	116.814	0.000403667
217.551	6.68816	2.07848e-05	116.776	0.000362904
218.796	6.70732	2.11921e-05	117.11	0.000370017
219.029	6.70751	2.33056e-05	117.114	0.000406917
219.5	6.69521	2.58391e-05	116.899	0.000451152
220.034	6.69059	2.20814e-05	116.818	0.000385543
220.518	6.69027	2.07859e-05	116.813	0.000362924
221.017	6.65346	2.32498e-05	116.17	0.000405943
221.556	6.70116	2.07174e-05	117.003	0.000361727
222.017	6.69774	2.10722e-05	116.943	0.000367923
222.523	6.68336	2.12234e-05	116.692	0.000370563
223.003	6.66534	2.05164e-05	116.377	0.000358219
223.553	6.65739	2.13293e-05	116.238	0.000372411
224.051	6.64448	2.21231e-05	116.013	0.00038627
224.545	6.64423	2.19251e-05	116.009	0.000382814
225.026	6.63719	2.46734e-05	115.886	0.0004308
225.509	6.60746	2.35855e-05	115.367	0.000411805
226.018	6.63158	2.19304e-05	115.788	0.000382907
226.526	6.60759	2.30522e-05	115.369	0.000402494
227.062	6.60328	2.23917e-05	115.294	0.000390961
227.508	6.58017	2.17161e-05	114.89	0.000379166
228.018	6.56766	2.15727e-05	114.672	0.000376662
229.121	6.55675	2.309e-05	114.481	0.000403153
229.522	6.54394	2.27616e-05	114.258	0.000397419
230.054	6.50011	2.00798e-05	113.492	0.000350595
230.541	6.50395	2.15118e-05	113.56	0.000375598
231.016	6.49495	2.27081e-05	113.402	0.000396485
231.509	6.47973	2.10018e-05	113.137	0.000366694
232.061	6.47903	2.55705e-05	113.124	0.000446463
232.501	6.49358	2.12372e-05	113.379	0.000370803
233.05	6.44173	2.16606e-05	112.473	0.000378196
233.523	6.43683	2.60483e-05	112.388	0.000454806
234.008	6.40229	2.32733e-05	111.784	0.000406353
234.533	6.38571	2.08432e-05	111.495	0.000363924
235.054	6.41588	2.02515e-05	112.022	0.000353593
235.525	6.36534	2.0881e-05	111.139	0.000364584
236.017	6.34985	2.04332e-05	110.869	0.000356765
236.551	6.32352	2.12232e-05	110.409	0.000370558
237.013	6.32904	2.39619e-05	110.506	0.000418376
237.524	6.31665	2.08122e-05	110.289	0.000363382
238.054	6.27881	1.9598e-05	109.629	0.000342182
238.559	6.2651	2.44768e-05	109.389	0.000427366
239.593	6.21412	1.95923e-05	108.499	0.000342082
240.042	6.21331	2.14355e-05	108.485	0.000374266
240.53	6.20497	2.53151e-05	108.339	0.000442003
241.012	6.15712	2.10373e-05	107.504	0.000367312
241.553	6.17391	2.36637e-05	107.797	0.00041317
242.05	6.11611	2.71591e-05	106.788	0.000474201
242.553	6.15259	2.37052e-05	107.425	0.000413894
243.044	6.08734	1.93183e-05	106.285	0.000337299
243.533	6.08214	2.87988e-05	106.195	0.000502829
244.012	6.07099	2.11036e-05	106	0.00036847
244.507	6.04628	2.66269e-05	105.569	0.000464908
245.009	6.01875	2.17757e-05	105.088	0.000380206
245.544	6.00313	2.1707e-05	104.815	0.000379005
246.003	5.9855	2.22343e-05	104.507	0.000388212
246.551	5.97929	2.35479e-05	104.399	0.000411148
247.025	5.93029	2.36546e-05	103.543	0.000413012
247.516	5.93864	2.33059e-05	103.689	0.000406923
248.001	5.89296	2.55454e-05	102.892	0.000446024
248.5	5.88529	2.30148e-05	102.758	0.000401841
249.053	5.8523	2.33986e-05	102.182	0.000408541
250.023	5.84449	1.85612e-05	102.045	0.000324081
250.518	5.80557	2.59119e-05	101.366	0.000452423
251.019	5.78331	2.00547e-05	100.977	0.000350157
251.525	5.75151	2.2703e-05	100.422	0.000396396
252.018	5.76636	2.55772e-05	100.681	0.00044658
252.529	5.72143	2.35112e-05	99.8966	0.000410508
253.029	5.6913	2.48159e-05	99.3705	0.000433288
253.549	5.7188	2.18019e-05	99.8507	0.000380663
254.023	5.65955	2.38618e-05	98.8162	0.000416629
254.536	5.63396	2.54237e-05	98.3694	0.000443899
255.021	5.62131	2.25162e-05	98.1485	0.000393134
255.501	5.60789	2.01777e-05	97.9142	0.000352305
256.037	5.58461	2.58778e-05	97.5078	0.000451829
256.538	5.55923	2.05863e-05	97.0646	0.000359438
257.035	5.54209	2.13676e-05	96.7653	0.000373081
257.529	5.52904	2.4534e-05	96.5376	0.000428365
258.017	5.52532	2.21312e-05	96.4725	0.000386412
258.506	5.50433	2.29132e-05	96.1061	0.000400067
259.044	5.48077	2.17532e-05	95.6946	0.000379812
259.551	5.44485	2.50416e-05	95.0676	0.000437229
260.403	5.44923	1.89698e-05	95.144	0.000331215
260.521	5.40852	2.18959e-05	94.4333	0.000382304
261.054	5.40025	2.18599e-05	94.2888	0.000381676
261.544	5.40687	2.29766e-05	94.4044	0.000401173
262.019	5.35476	2.16074e-05	93.4946	0.000377267
262.502	5.35405	2.15359e-05	93.4822	0.000376019
263.06	5.30104	2.46635e-05	92.5566	0.000430627
263.537	5.29633	2.41324e-05	92.4743	0.000421354
264.019	5.30109	2.7763e-05	92.5574	0.000484744
264.509	5.28121	1.79857e-05	92.2103	0.000314032
265.008	5.24027	2.78544e-05	91.4956	0.00048634
265.507	5.23024	2.3388e-05	91.3204	0.000408357
266.057	5.19615	2.34074e-05	90.7252	0.000408695
266.503	5.20145	2.38606e-05	90.8178	0.000416609
267.053	5.15887	2.2194e-05	90.0742	0.000387509
267.524	5.17366	2.42267e-05	90.3325	0.000423001
268.017	5.16537	2.12435e-05	90.1878	0.000370913
268.508	5.11749	2.12032e-05	89.3518	0.000370209
269.002	5.09762	2.34611e-05	89.0049	0.000409633
269.523	5.10871	2.10541e-05	89.1985	0.000367606
270.762	5.05154	2.55792e-05	88.2003	0.000446615
271.052	5.05376	2.39344e-05	88.2391	0.000417896
271.548	5.02144	2.34141e-05	87.6747	0.000408812
272.05	4.99126	2.15543e-05	87.1478	0.00037634
272.548	4.96159	2.67155e-05	86.6297	0.000466455
273.056	4.9405	2.08309e-05	86.2615	0.000363709
273.551	4.93736	2.0821e-05	86.2067	0.000363537
274.043	4.93463	2.55411e-05	86.1591	0.00044595
274.534	4.94928	2.05275e-05	86.4149	0.000358413
275.023	4.9013	2.47849e-05	85.577	0.000432746
275.52	4.87978	2.17831e-05	85.2013	0.000380334
276.021	4.84082	2.44549e-05	84.5211	0.000426984
276.506	4.85464	2.37419e-05	84.7624	0.000414535
277.049	4.82756	2.2246e-05	84.2896	0.000388417
277.553	4.80877	2.82389e-05	83.9614	0.000493053
278.013	4.7872	2.42296e-05	83.5849	0.00042305
278.543	4.76323	2.36346e-05	83.1664	0.000412662
279.032	4.77286	2.666e-05	83.3346	0.000465485
279.501	4.77685	2.17442e-05	83.4042	0.000379655
280.061	4.7218	2.17862e-05	82.4429	0.000380388
281.154	4.72094	2.44593e-05	82.428	0.000427061
281.526	4.66235	2.55041e-05	81.405	0.000445303
282.035	4.66021	2.52888e-05	81.3676	0.000441544
282.526	4.62004	2.22791e-05	80.6663	0.000388995
283.036	4.61261	2.19996e-05	80.5366	0.000384115
283.508	4.60326	2.08098e-05	80.3733	0.00036334
284.002	4.59587	2.31047e-05	80.2443	0.00040341
284.565	4.55791	2.24429e-05	79.5815	0.000391856
285.008	4.5854	2.0669e-05	80.0614	0.000360882
285.511	4.53993	2.10587e-05	79.2675	0.000367686
286.013	4.53137	2.22122e-05	79.118	0.000387827
286.504	4.52372	2.41237e-05	78.9846	0.000421201
287.052	4.51622	2.20139e-05	78.8535	0.000384365
287.547	4.47783	2.09411e-05	78.1833	0.000365634
288.041	4.45151	2.71786e-05	77.7237	0.00047454
288.536	4.4511	2.4866e-05	77.7166	0.000434163
289.037	4.39487	1.98395e-05	76.7347	0.000346398
289.506	4.41404	2.43481e-05	77.0694	0.000425119
290.051	4.36873	2.31822e-05	76.2783	0.000404763
290.53	4.35906	2.63378e-05	76.1096	0.000459861
291.592	4.38201	2.27917e-05	76.5102	0.000397945
292.023	4.27971	2.32997e-05	74.7241	0.000406814
292.523	4.34117	2.41208e-05	75.7972	0.000421151
293.025	4.3321	2.63782e-05	75.6388	0.000460566
293.517	4.2795	2.23786e-05	74.7204	0.000390732
294.031	4.2679	2.73917e-05	74.5178	0.000478262
294.559	4.24197	2.30704e-05	74.0652	0.000402811
295.001	4.23954	2.81087e-05	74.0228	0.000490781
295.528	4.2488	2.5484e-05	74.1844	0.000444953
296.042	4.20455	2.55316e-05	73.4118	0.000445784
296.521	4.18473	2.32486e-05	73.0657	0.000405922
297.026	4.18269	2.53583e-05	73.0301	0.000442757
297.529	4.16289	2.22216e-05	72.6845	0.000387991
298.025	4.17027	2.63513e-05	72.8133	0.000460095
298.504	4.14904	2.31854e-05	72.4426	0.000404818
299.059	4.11857	2.40418e-05	71.9106	0.000419772
299.537	4.1095	2.55517e-05	71.7522	0.000446135
300.022	4.07728	2.313e-05	71.1896	0.000403851
300.507	4.0878	2.28782e-05	71.3732	0.000399455
301.007	4.08986	2.13259e-05	71.4093	0.000372352
301.991	4.018	2.59488e-05	70.1547	0.000453068
302.043	4.05502	2.51553e-05	70.801	0.000439214
302.52	4.02628	2.44828e-05	70.2992	0.000427472
303.057	4.03251	2.40601e-05	70.4079	0.000420091
303.544	4.04608	2.37411e-05	70.6448	0.000414522
304.053	3.98562	2.03983e-05	69.5892	0.000356156
304.51	3.97593	2.66967e-05	69.42	0.000466127
305.025	3.95991	2.41752e-05	69.1404	0.000422101
305.506	3.952	2.19379e-05	69.0022	0.000383038
306.056	3.93984	2.17904e-05	68.7899	0.000380463
306.53	3.95365	2.32969e-05	69.031	0.000406766
307.02	3.90408	2.39018e-05	68.1656	0.000417328
307.556	3.93969	2.69161e-05	68.7873	0.000469957
308.039	3.87463	2.69828e-05	67.6513	0.000471123
308.531	3.88798	2.10766e-05	67.8844	0.000367999
309.028	3.81843	2.66167e-05	66.67	0.000464729
309.508	3.85378	2.45415e-05	67.2873	0.000428496
310.031	3.85226	2.33534e-05	67.2607	0.000407753
310.534	3.81623	2.5075e-05	66.6317	0.000437811
311.053	3.80425	2.53847e-05	66.4225	0.000443219
311.56	3.76679	3.13217e-05	65.7684	0.000546879
312.403	3.77537	2.49324e-05	65.9183	0.000435322
312.516	3.79141	3.03106e-05	66.1983	0.000529226
313.006	3.74864	2.36304e-05	65.4515	0.000412589
313.559	3.72124	2.30434e-05	64.9731	0.00040234
314.022	3.76122	2.91294e-05	65.6712	0.000508601
314.51	3.71252	2.30024e-05	64.8208	0.000401624
315.002	3.71743	2.61768e-05	64.9066	0.000457049
315.551	3.68326	2.72525e-05	64.31	0.000475831
316.027	3.66841	2.40896e-05	64.0507	0.000420606
316.544	3.67407	2.54377e-05	64.1496	0.000444145
317.011	3.64981	2.22679e-05	63.726	0.000388799
317.509	3.64653	2.64411e-05	63.6687	0.000461664
318.026	3.61349	2.85856e-05	63.0918	0.000499106
318.516	3.60552	1.97707e-05	62.9527	0.000345198
319.045	3.5864	2.92518e-05	62.6188	0.000510739
319.551	3.54909	2.73573e-05	61.9673	0.000477661
320.095	3.58229	2.13301e-05	62.5471	0.000372426
320.525	3.54558	2.01125e-05	61.9061	0.000351166
321.001	3.56473	2.56121e-05	62.2404	0.000447189
321.516	3.52686	2.95573e-05	61.5792	0.000516073
322.781	3.48526	2.32145e-05	60.8529	0.000405327
323.046	3.50405	2.68176e-05	61.1809	0.000468238
323.502	3.49695	2.48769e-05	61.057	0.000434352
324.035	3.43487	2.81674e-05	59.9731	0.000491805
324.509	3.44239	3.09535e-05	60.1044	0.00054045
325.041	3.4231	2.90203e-05	59.7676	0.000506696
325.562	3.44417	2.75242e-05	60.1354	0.000480574
326.045	3.4537	2.70629e-05	60.3019	0.00047252
326.517	3.40825	2.55278e-05	59.5083	0.000445717
327.023	3.41922	2.78526e-05	59.6998	0.000486309
327.524	3.37951	2.69416e-05	59.0065	0.000470403
328.051	3.38406	2.4613e-05	59.086	0.000429746
328.51	3.39669	2.2314e-05	59.3065	0.000389605
329.009	3.34706	2.26984e-05	58.44	0.000396317
329.504	3.35423	2.49946e-05	58.5651	0.000436408
330.048	3.34803	2.44197e-05	58.4568	0.000426371
330.538	3.3374	2.22778e-05	58.2712	0.000388972
331.023	3.31452	2.79559e-05	57.8718	0.000488112
331.522	3.31769	2.20528e-05	57.9271	0.000385044
332.056	3.26817	2.74641e-05	57.0624	0.000479525
333.263	3.25783	3.15881e-05	56.882	0.000551531
333.506	3.24701	2.48832e-05	56.693	0.000434462
334.016	3.26034	2.53689e-05	56.9258	0.000442942
334.528	3.25705	2.6721e-05	56.8684	0.000466551
335.022	3.23818	2.53462e-05	56.5388	0.000442547
335.562	3.2073	2.52982e-05	55.9998	0.000441709
336.01	3.23357	2.5785e-05	56.4584	0.000450208
336.533	3.19297	1.98049e-05	55.7495	0.000345795
337.02	3.22308	2.4761e-05	56.2752	0.000432329
337.518	3.15646	2.56309e-05	55.112	0.000447517
338.01	3.19563	2.20783e-05	55.7959	0.000385488
338.506	3.1308	1.99894e-05	54.664	0.000349017
339.022	3.12883	2.6289e-05	54.6296	0.000459008
339.52	3.11867	2.87472e-05	54.4522	0.000501929
340.033	3.12767	2.19646e-05	54.6093	0.000383504
340.525	3.10442	2.9334e-05	54.2035	0.000512174
341.054	3.06797	2.77235e-05	53.567	0.000484054
341.533	3.1039	3.04958e-05	54.1943	0.000532459
342.011	3.08537	2.28675e-05	53.8708	0.000399269
342.559	3.08028	2.56997e-05	53.7819	0.000448719
343.647	3.04362	2.48449e-05	53.1419	0.000433794
344.014	3.07682	2.66348e-05	53.7215	0.000465046
344.549	3.02459	2.73005e-05	52.8096	0.000476669
345.047	3.04361	1.96124e-05	53.1417	0.000342434
345.546	2.99642	2.16522e-05	52.3178	0.000378049
346.013	3.03315	3.09193e-05	52.9591	0.000539854
346.552	2.98799	2.22233e-05	52.1705	0.000388021
347.006	2.99898	2.9043e-05	52.3625	0.000507093
347.501	2.97876	2.69272e-05	52.0094	0.000470151
348.016	2.95842	2.49348e-05	51.6542	0.000435363
348.508	2.96249	2.62761e-05	51.7253	0.000458783
349.002	2.91792	2.83089e-05	50.9472	0.000494275
349.503	2.91371	2.9749e-05	50.8736	0.000519421
349.752	2.91336	2.75403e-05	50.8675	0.000480856