File: data/colloidalCrystals/nanoparticles/vsm/postSynthesis/rawdata/dd144_dry_BGLinSub.xy
#Extracted data using VSM extraction tool v1.1
#Loaded parameter file: extractVSM.dat
#Desired unit of B: T
#Desired unit of M: memu
#Reading column for B: Applied Field
#Reading column for M: Raw Signal Mx
#Estimate noise level: 5e-3 memu
#Loading data from file: dd144_dry-Hys-00.VHD
#Save data to file: dd144_dry.xye
#Extraction performed at: Wed Oct 12 13:39:32 2016
#Unit of B in data: Oe
#Changing unit by multiplying with factor: 0.0001
#Unit of M in data: memu
#Applied image correction factors to M by linear interpolation of following values
#14998.0	1.0
#15247.0	1.000156
#15497.0	1.000302
#15747.0	1.000527
#15997.0	1.000751
#16247.0	1.001191
#16497.0	1.001494
#16746.0	1.001865
#16996.0	1.002237
#17247.0	1.002688
#17496.0	1.003286
#17746.0	1.003738
#17996.0	1.004259
#18245.0	1.005007
#18495.0	1.005686
#18745.0	1.006367
#18995.0	1.007118

#Substracted file: dd144_dry.xye
#Using Slope: -1.257
#BG Scalefactor: 1
#BG Sigma Slope: 0.0
#B / T	M_sub / memu	sM_sub / memu	M_extracted / memu	sM_extracted / memu	M_raw / memu	sM_raw / memu
-0.0007	-0.2187374	0.005	-0.2178575	0.005	-0.2178575	0.005
0.0	0.03290911	0.005	0.03290911	0.005	0.03290911	0.005
0.001	0.3128248	0.005	0.3115678	0.005	0.3115678	0.005
0.0021	0.6115559	0.005	0.6089162	0.005	0.6089162	0.005
0.0031	0.8823065	0.005	0.8784098	0.005	0.8784098	0.005
0.0041	1.1594	0.005	1.154245	0.005	1.154245	0.005
0.0051	1.43228	0.005	1.425867	0.005	1.425867	0.005
0.0076	2.08376	0.005	2.07421	0.005	2.07421	0.005
0.01	2.705073	0.005	2.692503	0.005	2.692503	0.005
0.0126	3.30116	0.005	3.28532	0.005	3.28532	0.005
0.0151	3.8614	0.005	3.842422	0.005	3.842422	0.005
0.0175	4.38776	0.005	4.36576	0.005	4.36576	0.005
0.02	4.888739	0.005	4.863599	0.005	4.863599	0.005
0.0225	5.36067	0.005	5.332383	0.005	5.332383	0.005
0.025	5.808058	0.005	5.776633	0.005	5.776633	0.005
0.0275	6.22889	0.005	6.194324	0.005	6.194324	0.005
0.03	6.633972	0.005	6.596262	0.005	6.596262	0.005
0.0326	7.01627	0.005	6.975296	0.005	6.975296	0.005
0.035	7.377731	0.005	7.333736	0.005	7.333736	0.005
0.0375	7.72233	0.005	7.675188	0.005	7.675188	0.005
0.04	8.054384	0.005	8.004104	0.005	8.004104	0.005
0.0425	8.37055	0.005	8.317126	0.005	8.317126	0.005
0.0451	8.6748	0.005	8.618108	0.005	8.618108	0.005
0.0475	8.96319	0.005	8.90348	0.005	8.90348	0.005
0.05	9.241086	0.005	9.178236	0.005	9.178236	0.005
0.0525	9.50616	0.005	9.440163	0.005	9.440163	0.005
0.055	9.763224	0.005	9.694089	0.005	9.694089	0.005
0.0575	10.0101	0.005	9.937778	0.005	9.937778	0.005
0.06	10.24906	0.005	10.17364	0.005	10.17364	0.005
0.0625	10.4781	0.005	10.39951	0.005	10.39951	0.005
0.065	10.6978	0.005	10.61613	0.005	10.61613	0.005
0.0675	10.9116	0.005	10.82672	0.005	10.82672	0.005
0.07	11.12319	0.005	11.0352	0.005	11.0352	0.005
0.0725	11.3214	0.005	11.23024	0.005	11.23024	0.005
0.075	11.5174	0.005	11.42309	0.005	11.42309	0.005
0.0775	11.7052	0.005	11.60777	0.005	11.60777	0.005
0.08	11.88021	0.005	11.77965	0.005	11.77965	0.005
0.0825	12.0631	0.005	11.95941	0.005	11.95941	0.005
0.085	12.2376	0.005	12.13076	0.005	12.13076	0.005
0.0875	12.4026	0.005	12.29264	0.005	12.29264	0.005
0.09	12.57077	0.005	12.45764	0.005	12.45764	0.005
0.0925	12.727	0.005	12.61074	0.005	12.61074	0.005
0.095	12.8822	0.005	12.76278	0.005	12.76278	0.005
0.0975	13.0324	0.005	12.90988	0.005	12.90988	0.005
0.1	13.17778	0.005	13.05208	0.005	13.05208	0.005
0.15	15.51487	0.005	15.32632	0.005	15.32632	0.005
0.2	17.14862	0.005	16.89722	0.005	16.89722	0.005
0.25	18.39296	0.005	18.07871	0.005	18.07871	0.005
0.3	19.39225	0.005	19.01515	0.005	19.01515	0.005
0.35	20.23002	0.005	19.79007	0.005	19.79007	0.005
0.4001	20.9447	0.005	20.44173	0.005	20.44173	0.005
0.45	21.56848	0.005	21.00283	0.005	21.00283	0.005
0.5	22.12956	0.005	21.50106	0.005	21.50106	0.005
0.5501	22.6335	0.005	21.94205	0.005	21.94205	0.005
0.6001	23.0896	0.005	22.33531	0.005	22.33531	0.005
0.65	23.50944	0.005	22.69239	0.005	22.69239	0.005
0.7	23.89672	0.005	23.01682	0.005	23.01682	0.005
0.7501	24.2515	0.005	23.30859	0.005	23.30859	0.005
0.8002	24.5848	0.005	23.57895	0.005	23.57895	0.005
0.8501	24.9028	0.005	23.83421	0.005	23.83421	0.005
0.9001	25.1995	0.005	24.06806	0.005	24.06806	0.005
0.9501	25.48	0.005	24.28576	0.005	24.28576	0.005
1.0002	25.7445	0.005	24.48729	0.005	24.48729	0.005
1.1001	26.242	0.005	24.85913	0.005	24.85913	0.005
1.2001	26.6896	0.005	25.18111	0.005	25.18111	0.005
1.3001	27.1064	0.005	25.47217	0.005	25.47217	0.005
1.4001	27.4828	0.005	25.72287	0.005	25.72287	0.005
1.5001	27.8343	0.005	25.9487	0.005	25.94864	0.005
1.6001	28.1553	0.005	26.144	0.005	26.12419	0.005
1.7001	28.48	0.005	26.343	0.005	26.28396	0.005
1.8001	28.7698	0.005	26.507	0.005	26.39422	0.005
1.9	29.0644	0.005	26.6761	0.005	26.48759	0.005
1.8006	28.7753	0.005	26.512	0.005	26.39877	0.005
1.7005	28.4825	0.005	26.3449	0.005	26.28572	0.005
1.6007	28.1757	0.005	26.1636	0.005	26.14351	0.005
1.5005	27.8377	0.005	25.9516	0.005	25.95144	0.005
1.4005	27.4991	0.005	25.73869	0.005	25.73869	0.005
1.3004	27.1233	0.005	25.48869	0.005	25.48869	0.005
1.2004	26.7058	0.005	25.19691	0.005	25.19691	0.005
1.1003	26.2622	0.005	24.87915	0.005	24.87915	0.005
1.0004	25.7722	0.005	24.51469	0.005	24.51469	0.005
0.9503	25.5014	0.005	24.30683	0.005	24.30683	0.005
0.9003	25.2278	0.005	24.09615	0.005	24.09615	0.005
0.8502	24.9324	0.005	23.86372	0.005	23.86372	0.005
0.8002	24.6196	0.005	23.61373	0.005	23.61373	0.005
0.7503	24.2882	0.005	23.34512	0.005	23.34512	0.005
0.7002	23.9265	0.005	23.04632	0.005	23.04632	0.005
0.6502	23.5487	0.005	22.73137	0.005	22.73137	0.005
0.6002	23.1316	0.005	22.3771	0.005	22.3771	0.005
0.5502	22.6765	0.005	21.9849	0.005	21.9849	0.005
0.5002	22.1807	0.005	21.55196	0.005	21.55196	0.005
0.4502	21.6284	0.005	21.06252	0.005	21.06252	0.005
0.4002	21.0024	0.005	20.49934	0.005	20.49934	0.005
0.3502	20.2896	0.005	19.84941	0.005	19.84941	0.005
0.3002	19.4592	0.005	19.08187	0.005	19.08187	0.005
0.2502	18.4554	0.005	18.14087	0.005	18.14087	0.005
0.2002	17.2096	0.005	16.95796	0.005	16.95796	0.005
0.1502	15.5783	0.005	15.38953	0.005	15.38953	0.005
0.1001	13.2429	0.005	13.11705	0.005	13.11705	0.005
0.0975	13.0914	0.005	12.96889	0.005	12.96889	0.005
0.095	12.9391	0.005	12.81965	0.005	12.81965	0.005
0.0926	12.7858	0.005	12.66938	0.005	12.66938	0.005
0.09	12.62697	0.005	12.51384	0.005	12.51384	0.005
0.0875	12.4627	0.005	12.35267	0.005	12.35267	0.005
0.085	12.2983	0.005	12.1915	0.005	12.1915	0.005
0.0825	12.1246	0.005	12.02088	0.005	12.02088	0.005
0.08	11.94832	0.005	11.84776	0.005	11.84776	0.005
0.0775	11.7679	0.005	11.67044	0.005	11.67044	0.005
0.075	11.5751	0.005	11.48084	0.005	11.48084	0.005
0.0725	11.3831	0.005	11.29194	0.005	11.29194	0.005
0.07	11.18365	0.005	11.09566	0.005	11.09566	0.005
0.0675	10.9744	0.005	10.88958	0.005	10.88958	0.005
0.065	10.7595	0.005	10.67784	0.005	10.67784	0.005
0.0625	10.5405	0.005	10.46191	0.005	10.46191	0.005
0.0601	10.3127	0.005	10.23718	0.005	10.23718	0.005
0.0576	10.0751	0.005	10.00267	0.005	10.00267	0.005
0.0551	9.82682	0.005	9.757556	0.005	9.757556	0.005
0.0526	9.57229	0.005	9.506174	0.005	9.506174	0.005
0.0501	9.30336	0.005	9.240384	0.005	9.240384	0.005
0.0476	9.02844	0.005	8.968608	0.005	8.968608	0.005
0.0451	8.74125	0.005	8.684556	0.005	8.684556	0.005
0.0426	8.44002	0.005	8.386472	0.005	8.386472	0.005
0.0401	8.12718	0.005	8.076772	0.005	8.076772	0.005
0.0376	7.79574	0.005	7.74848	0.005	7.74848	0.005
0.0351	7.45133	0.005	7.407206	0.005	7.407206	0.005
0.0326	7.0872	0.005	7.046221	0.005	7.046221	0.005
0.0301	6.70661	0.005	6.668777	0.005	6.668777	0.005
0.0276	6.31058	0.005	6.275887	0.005	6.275887	0.005
0.0251	5.88679	0.005	5.855238	0.005	5.855238	0.005
0.0226	5.43632	0.005	5.407916	0.005	5.407916	0.005
0.0201	4.96339	0.005	4.938124	0.005	4.938124	0.005
0.0176	4.4599	0.005	4.437781	0.005	4.437781	0.005
0.0151	3.92939	0.005	3.910405	0.005	3.910405	0.005
0.0126	3.36691	0.005	3.351067	0.005	3.351067	0.005
0.0101	2.76581	0.005	2.753116	0.005	2.753116	0.005
0.0076	2.13241	0.005	2.122859	0.005	2.122859	0.005
0.0051	1.4653	0.005	1.458891	0.005	1.458891	0.005
0.0041	1.19088	0.005	1.185727	0.005	1.185727	0.005
0.0031	0.9097821	0.005	0.9058854	0.005	0.9058854	0.005
0.0021	0.6258752	0.005	0.6232355	0.005	0.6232355	0.005
0.0011	0.3398605	0.005	0.3384778	0.005	0.3384778	0.005
0.0	0.05688125	0.005	0.05688125	0.005	0.05688125	0.005
-0.0007	-0.2252445	0.005	-0.2243646	0.005	-0.2243646	0.005
-0.0017	-0.509152	0.005	-0.5070151	0.005	-0.5070151	0.005
-0.0027	-0.7902485	0.005	-0.7868546	0.005	-0.7868546	0.005
-0.0037	-1.06994	0.005	-1.065291	0.005	-1.065291	0.005
-0.0047	-1.34753	0.005	-1.341622	0.005	-1.341622	0.005
-0.0072	-2.0192	0.005	-2.010154	0.005	-2.010154	0.005
-0.0097	-2.6547	0.005	-2.642512	0.005	-2.642512	0.005
-0.0122	-3.26282	0.005	-3.247484	0.005	-3.247484	0.005
-0.0147	-3.83162	0.005	-3.813147	0.005	-3.813147	0.005
-0.0172	-4.37162	0.005	-4.350003	0.005	-4.350003	0.005
-0.0197	-4.8737	0.005	-4.848941	0.005	-4.848941	0.005
-0.0222	-5.3505	0.005	-5.322595	0.005	-5.322595	0.005
-0.0247	-5.80483	0.005	-5.77378	0.005	-5.77378	0.005
-0.0272	-6.23246	0.005	-6.198271	0.005	-6.198271	0.005
-0.0297	-6.63554	0.005	-6.598206	0.005	-6.598206	0.005
-0.0322	-7.01823	0.005	-6.977758	0.005	-6.977758	0.005
-0.0347	-7.38656	0.005	-7.342938	0.005	-7.342938	0.005
-0.0372	-7.73448	0.005	-7.687723	0.005	-7.687723	0.005
-0.0397	-8.06523	0.005	-8.015331	0.005	-8.015331	0.005
-0.0422	-8.38404	0.005	-8.330993	0.005	-8.330993	0.005
-0.0447	-8.6902	0.005	-8.634013	0.005	-8.634013	0.005
-0.0472	-8.97916	0.005	-8.919833	0.005	-8.919833	0.005
-0.0497	-9.2579	0.005	-9.195425	0.005	-9.195425	0.005
-0.0522	-9.52858	0.005	-9.46296	0.005	-9.46296	0.005
-0.0547	-9.78349	0.005	-9.71473	0.005	-9.71473	0.005
-0.0572	-10.0279	0.005	-9.955957	0.005	-9.955957	0.005
-0.0597	-10.2694	0.005	-10.19436	0.005	-10.19436	0.005
-0.0623	-10.5002	0.005	-10.42189	0.005	-10.42189	0.005
-0.0648	-10.7259	0.005	-10.64447	0.005	-10.64447	0.005
-0.0673	-10.9398	0.005	-10.85517	0.005	-10.85517	0.005
-0.0698	-11.1459	0.005	-11.05812	0.005	-11.05812	0.005
-0.0723	-11.348	0.005	-11.25716	0.005	-11.25716	0.005
-0.0748	-11.5436	0.005	-11.44962	0.005	-11.44962	0.005
-0.0773	-11.7329	0.005	-11.6357	0.005	-11.6357	0.005
-0.0798	-11.9158	0.005	-11.81547	0.005	-11.81547	0.005
-0.0823	-12.0959	0.005	-11.99245	0.005	-11.99245	0.005
-0.0848	-12.2672	0.005	-12.16063	0.005	-12.16063	0.005
-0.0873	-12.4364	0.005	-12.32669	0.005	-12.32669	0.005
-0.0898	-12.6	0.005	-12.48715	0.005	-12.48715	0.005
-0.0923	-12.7608	0.005	-12.64479	0.005	-12.64479	0.005
-0.0948	-12.9142	0.005	-12.79506	0.005	-12.79506	0.005
-0.0973	-13.0648	0.005	-12.94254	0.005	-12.94254	0.005
-0.0998	-13.2133	0.005	-13.08789	0.005	-13.08789	0.005
-0.1497	-15.5538	0.005	-15.36567	0.005	-15.36567	0.005
-0.1996	-17.1959	0.005	-16.94498	0.005	-16.94498	0.005
-0.2497	-18.4397	0.005	-18.12578	0.005	-18.12578	0.005
-0.2997	-19.4389	0.005	-19.0622	0.005	-19.0622	0.005
-0.3497	-20.269	0.005	-19.82938	0.005	-19.82938	0.005
-0.3997	-20.9842	0.005	-20.48176	0.005	-20.48176	0.005
-0.4498	-21.6047	0.005	-21.03934	0.005	-21.03934	0.005
-0.4998	-22.1648	0.005	-21.53651	0.005	-21.53651	0.005
-0.5497	-22.6622	0.005	-21.9712	0.005	-21.9712	0.005
-0.5998	-23.1177	0.005	-22.36375	0.005	-22.36375	0.005
-0.6498	-23.5443	0.005	-22.7275	0.005	-22.7275	0.005
-0.6998	-23.927	0.005	-23.04737	0.005	-23.04737	0.005
-0.7498	-24.2852	0.005	-23.34266	0.005	-23.34266	0.005
-0.7997	-24.6196	0.005	-23.61441	0.005	-23.61441	0.005
-0.8498	-24.9389	0.005	-23.87074	0.005	-23.87074	0.005
-0.8998	-25.2275	0.005	-24.0965	0.005	-24.0965	0.005
-0.9498	-25.5035	0.005	-24.30963	0.005	-24.30963	0.005
-0.9998	-25.7725	0.005	-24.51573	0.005	-24.51573	0.005
-1.0998	-26.2686	0.005	-24.88616	0.005	-24.88616	0.005
-1.1998	-26.7135	0.005	-25.20532	0.005	-25.20532	0.005
-1.2999	-27.123	0.005	-25.48903	0.005	-25.48903	0.005
-1.3998	-27.4989	0.005	-25.73936	0.005	-25.73936	0.005
-1.4998	-27.8476	0.005	-25.96234	0.005	-25.96234	0.005
-1.5997	-28.174	0.005	-26.1631	0.005	-26.14351	0.005
-1.6999	-28.4916	0.005	-26.3549	0.005	-26.2959	0.005
-1.7998	-28.7935	0.005	-26.5311	0.005	-26.41845	0.005
-1.8998	-29.0815	0.005	-26.6935	0.005	-26.50482	0.005
-1.8002	-28.7918	0.005	-26.529	0.005	-26.41597	0.005
-1.7002	-28.4953	0.005	-26.3582	0.005	-26.29905	0.005
-1.6001	-28.1792	0.005	-26.1679	0.005	-26.14807	0.005
-1.5001	-27.8484	0.005	-25.9627	0.005	-25.96269	0.005
-1.4001	-27.5169	0.005	-25.75694	0.005	-25.75694	0.005
-1.3001	-27.1373	0.005	-25.50308	0.005	-25.50308	0.005
-1.2001	-26.7321	0.005	-25.22357	0.005	-25.22357	0.005
-1.1	-26.27869	0.005	-24.89599	0.005	-24.89599	0.005
-1.0	-25.79206	0.005	-24.53506	0.005	-24.53506	0.005
-0.95	-25.53256	0.005	-24.33841	0.005	-24.33841	0.005
-0.9	-25.25099	0.005	-24.11969	0.005	-24.11969	0.005
-0.8499	-24.9535	0.005	-23.88513	0.005	-23.88513	0.005
-0.7999	-24.6427	0.005	-23.63726	0.005	-23.63726	0.005
-0.7499	-24.3081	0.005	-23.36547	0.005	-23.36547	0.005
-0.7	-23.95288	0.005	-23.07298	0.005	-23.07298	0.005
-0.6499	-23.5732	0.005	-22.7563	0.005	-22.7563	0.005
-0.5999	-23.1631	0.005	-22.40905	0.005	-22.40905	0.005
-0.5499	-22.7102	0.005	-22.01896	0.005	-22.01896	0.005
-0.4999	-22.2123	0.005	-21.58392	0.005	-21.58392	0.005
-0.4499	-21.6586	0.005	-21.09307	0.005	-21.09307	0.005
-0.3998	-21.0373	0.005	-20.53479	0.005	-20.53479	0.005
-0.3499	-20.324	0.005	-19.88417	0.005	-19.88417	0.005
-0.2999	-19.4925	0.005	-19.11557	0.005	-19.11557	0.005
-0.2499	-18.4891	0.005	-18.17494	0.005	-18.17494	0.005
-0.1998	-17.2446	0.005	-16.99342	0.005	-16.99342	0.005
-0.1499	-15.6067	0.005	-15.41831	0.005	-15.41831	0.005
-0.0999	-13.2637	0.005	-13.13814	0.005	-13.13814	0.005
-0.0973	-13.1098	0.005	-12.9875	0.005	-12.9875	0.005
-0.0948	-12.9571	0.005	-12.83791	0.005	-12.83791	0.005
-0.0923	-12.803	0.005	-12.68693	0.005	-12.68693	0.005
-0.0898	-12.6432	0.005	-12.53033	0.005	-12.53033	0.005
-0.0873	-12.4792	0.005	-12.36951	0.005	-12.36951	0.005
-0.085	-12.3247	0.005	-12.21783	0.005	-12.21783	0.005
-0.0823	-12.1334	0.005	-12.02997	0.005	-12.02997	0.005
-0.0798	-11.9554	0.005	-11.85513	0.005	-11.85513	0.005
-0.0773	-11.7743	0.005	-11.67712	0.005	-11.67712	0.005
-0.075	-11.6004	0.005	-11.50613	0.005	-11.50613	0.005
-0.0723	-11.3895	0.005	-11.29861	0.005	-11.29861	0.005
-0.0698	-11.1848	0.005	-11.09705	0.005	-11.09705	0.005
-0.0673	-10.9763	0.005	-10.89169	0.005	-10.89169	0.005
-0.065	-10.7802	0.005	-10.69854	0.005	-10.69854	0.005
-0.0625	-10.5598	0.005	-10.48123	0.005	-10.48123	0.005
-0.06	-10.32877	0.005	-10.25335	0.005	-10.25335	0.005
-0.0573	-10.0705	0.005	-9.998429	0.005	-9.998429	0.005
-0.055	-9.842844	0.005	-9.773709	0.005	-9.773709	0.005
-0.0523	-9.56418	0.005	-9.498434	0.005	-9.498434	0.005
-0.0499	-9.31609	0.005	-9.253367	0.005	-9.253367	0.005
-0.0475	-9.03992	0.005	-8.980213	0.005	-8.980213	0.005
-0.045	-8.751312	0.005	-8.694747	0.005	-8.694747	0.005
-0.0425	-8.44727	0.005	-8.393847	0.005	-8.393847	0.005
-0.04	-8.127747	0.005	-8.077467	0.005	-8.077467	0.005
-0.0372	-7.76996	0.005	-7.723197	0.005	-7.723197	0.005
-0.0349	-7.44897	0.005	-7.405097	0.005	-7.405097	0.005
-0.0324	-7.08483	0.005	-7.0441	0.005	-7.0441	0.005
-0.0299	-6.69967	0.005	-6.662085	0.005	-6.662085	0.005
-0.0275	-6.29744	0.005	-6.262869	0.005	-6.262869	0.005
-0.0249	-5.86863	0.005	-5.837333	0.005	-5.837333	0.005
-0.0224	-5.41782	0.005	-5.389659	0.005	-5.389659	0.005
-0.0199	-4.94313	0.005	-4.918112	0.005	-4.918112	0.005
-0.0174	-4.43718	0.005	-4.415312	0.005	-4.415312	0.005
-0.0149	-3.89859	0.005	-3.87986	0.005	-3.87986	0.005
-0.0124	-3.32768	0.005	-3.312091	0.005	-3.312091	0.005
-0.0099	-2.72729	0.005	-2.714842	0.005	-2.714842	0.005
-0.0074	-2.08582	0.005	-2.076515	0.005	-2.076515	0.005
-0.0049	-1.41169	0.005	-1.405526	0.005	-1.405526	0.005
-0.0037	-1.08047	0.005	-1.075824	0.005	-1.075824	0.005
-0.0028	-0.797747	0.005	-0.7942274	0.005	-0.7942274	0.005
-0.0017	-0.5147699	0.005	-0.512633	0.005	-0.512633	0.005
-0.0007	-0.2308624	0.005	-0.2299825	0.005	-0.2299825	0.005
0.0	0.02668498	0.005	0.02668498	0.005	0.02668498	0.005
0.001	0.3095388	0.005	0.3082818	0.005	0.3082818	0.005
0.0021	0.629035	0.005	0.6263953	0.005	0.6263953	0.005
0.003	0.8815634	0.005	0.8777924	0.005	0.8777924	0.005
0.0041	1.19439	0.005	1.189238	0.005	1.189238	0.005
0.0051	1.4653	0.005	1.458891	0.005	1.458891	0.005
0.0076	2.13382	0.005	2.124263	0.005	2.124263	0.005
0.0101	2.76651	0.005	2.753818	0.005	2.753818	0.005
0.0125	3.36889	0.005	3.353174	0.005	3.353174	0.005
0.0151	3.94098	0.005	3.921997	0.005	3.921997	0.005
0.0175	4.46996	0.005	4.447966	0.005	4.447966	0.005
0.02	4.975903	0.005	4.950763	0.005	4.950763	0.005
0.0226	5.45072	0.005	5.42231	0.005	5.42231	0.005
0.0251	5.89978	0.005	5.868228	0.005	5.868228	0.005
0.0276	6.32672	0.005	6.292028	0.005	6.292028	0.005
0.0301	6.72696	0.005	6.689123	0.005	6.689123	0.005
0.0325	7.10989	0.005	7.069041	0.005	7.069041	0.005
0.0351	7.47518	0.005	7.431063	0.005	7.431063	0.005
0.0376	7.82209	0.005	7.774824	0.005	7.774824	0.005
0.04	8.151298	0.005	8.101018	0.005	8.101018	0.005
0.0426	8.46565	0.005	8.412097	0.005	8.412097	0.005
0.0451	8.77215	0.005	8.715459	0.005	8.715459	0.005
0.0476	9.06108	0.005	9.001243	0.005	9.001243	0.005
0.0501	9.33778	0.005	9.274809	0.005	9.274809	0.005
0.0525	9.60376	0.005	9.537772	0.005	9.537772	0.005
0.055	9.859703	0.005	9.790568	0.005	9.790568	0.005
0.0575	10.1069	0.005	10.0346	0.005	10.0346	0.005
0.06	10.34565	0.005	10.27023	0.005	10.27023	0.005
0.0625	10.5721	0.005	10.49349	0.005	10.49349	0.005
0.065	10.7971	0.005	10.71542	0.005	10.71542	0.005
0.0675	11.0064	0.005	10.92151	0.005	10.92151	0.005
0.07	11.21703	0.005	11.12904	0.005	11.12904	0.005
0.0725	11.4182	0.005	11.32706	0.005	11.32706	0.005
0.075	11.6145	0.005	11.52019	0.005	11.52019	0.005
0.0775	11.8009	0.005	11.70345	0.005	11.70345	0.005
0.08	11.98309	0.005	11.88253	0.005	11.88253	0.005
0.0825	12.1604	0.005	12.05666	0.005	12.05666	0.005
0.085	12.3338	0.005	12.22697	0.005	12.22697	0.005
0.0875	12.5009	0.005	12.39096	0.005	12.39096	0.005
0.09	12.66348	0.005	12.55035	0.005	12.55035	0.005
0.0925	12.8215	0.005	12.70519	0.005	12.70519	0.005
0.095	12.977	0.005	12.85756	0.005	12.85756	0.005
0.0975	13.1294	0.005	13.0068	0.005	13.0068	0.005
0.1	13.27609	0.005	13.15039	0.005	13.15039	0.005
0.15	15.61037	0.005	15.42182	0.005	15.42182	0.005
0.2001	17.2456	0.005	16.99412	0.005	16.99412	0.005
0.25	18.48462	0.005	18.17037	0.005	18.17037	0.005
0.3	19.48145	0.005	19.10435	0.005	19.10435	0.005
0.3501	20.3091	0.005	19.86906	0.005	19.86906	0.005
0.4001	21.0216	0.005	20.51864	0.005	20.51864	0.005
0.45	21.64605	0.005	21.0804	0.005	21.0804	0.005
0.5	22.19697	0.005	21.56847	0.005	21.56847	0.005
0.5501	22.6985	0.005	22.00702	0.005	22.00702	0.005
0.6001	23.1627	0.005	22.40835	0.005	22.40835	0.005
0.6501	23.5798	0.005	22.76262	0.005	22.76262	0.005
0.7	23.96272	0.005	23.08282	0.005	23.08282	0.005
0.7501	24.3182	0.005	23.37531	0.005	23.37531	0.005
0.8002	24.6512	0.005	23.64533	0.005	23.64533	0.005
0.8501	24.96	0.005	23.89144	0.005	23.89144	0.005
0.9001	25.2585	0.005	24.12705	0.005	24.12705	0.005
0.9502	25.5342	0.005	24.33982	0.005	24.33982	0.005
1.0002	25.8078	0.005	24.5505	0.005	24.5505	0.005
1.1001	26.3009	0.005	24.91811	0.005	24.91811	0.005
1.2001	26.7455	0.005	25.23693	0.005	25.23693	0.005
1.3001	27.1577	0.005	25.52343	0.005	25.52343	0.005
1.4001	27.5274	0.005	25.76747	0.005	25.76747	0.005
1.5001	27.8782	0.005	25.9926	0.005	25.99253	0.005
1.6001	28.2049	0.005	26.1935	0.005	26.1737	0.005
1.7001	28.5219	0.005	26.3849	0.005	26.32574	0.005
1.8001	28.824	0.005	26.5613	0.005	26.44827	0.005
1.9001	29.1013	0.005	26.7129	0.005	26.52412	0.005