File: data/monolayers/nanoparticles/Ac_CoFe_C/vsm/ZFCFC/AH11_ZFC_LangevinSAXSscaled.xye
#Executed at: 2018-11-12 20:26:18.6258
#Loaded File	 = ../rawdata/DD226_1_ZFCW_100OE.DAT
#Rescale Factor	 = 0.208643
#[[Data]]
#T/K	M/kAm-1	sM/kAm-1	M_raw/memu	sM_raw/memu
10.0033	0.0865317	0.0524255	0.414735	0.251269
10.0198	0.0837638	0.0620979	0.401469	0.297627
10.5576	0.0385731	0.0702004	0.184876	0.336462
11.0314	-0.0195792	0.0593196	-0.0938405	0.284311
11.5023	0.10678	0.0626387	0.511783	0.300219
12.0252	0.00907608	0.0720706	0.0435005	0.345425
12.5033	0.0818073	0.0579437	0.392092	0.277717
13.0274	4.048e-05	0.0767731	0.000194015	0.367964
13.5116	-0.00660228	0.048962	-0.0316439	0.234668
14.045	0.135732	0.0602393	0.650548	0.288719
14.5631	0.0620967	0.0612914	0.297622	0.293762
15.0577	0.0454336	0.0538062	0.217758	0.257886
15.509	0.00340994	0.0565276	0.0163434	0.27093
16.0246	0.031247	0.0597658	0.149763	0.28645
16.5537	0.0755588	0.0610203	0.362144	0.292463
17.0301	0.0204644	0.0557348	0.0980833	0.26713
17.5515	0.109854	0.0673719	0.526518	0.322905
18.0697	0.038418	0.0602224	0.184132	0.288638
18.5062	0.0226942	0.0663476	0.108771	0.317996
19.0262	0.0617917	0.0597326	0.29616	0.286291
19.5309	0.0604874	0.0530653	0.289909	0.254335
20.8699	0.0857209	0.0592948	0.410849	0.284192
21.0314	0.14026	0.0759385	0.672249	0.363964
21.5106	0.019748	0.0640272	0.0946497	0.306874
22.0211	0.0874004	0.0521049	0.418899	0.249732
22.5449	0.0401214	0.0595813	0.192297	0.285566
23.0018	-0.0329569	0.0594044	-0.157958	0.284718
23.5564	0.08006	0.0590846	0.383717	0.283185
24.0191	0.0413694	0.051963	0.198278	0.249052
24.5765	0.0828058	0.0610563	0.396877	0.292635
25.013	0.0401213	0.0593324	0.192296	0.284373
25.5255	0.0717682	0.0555397	0.343976	0.266195
26.0388	0.0966706	0.0686332	0.46333	0.32895
26.5165	0.105315	0.0722108	0.504759	0.346097
27.0192	0.0395121	0.0542518	0.189376	0.260022
27.5507	0.0674019	0.05334	0.323049	0.255652
28.0144	0.0127843	0.0648785	0.0612737	0.310954
28.5392	0.104206	0.0595527	0.499445	0.285428
29.0114	0.0840723	0.0562863	0.402948	0.269773
29.5392	0.0628856	0.0633296	0.301402	0.303531
30.0114	0.0698579	0.0688676	0.33482	0.330073
31.3535	0.0204938	0.0695195	0.0982242	0.333198
31.5438	0.0699582	0.0528946	0.335301	0.253517
32.059	0.0561427	0.0652135	0.269085	0.31256
32.5711	0.0596715	0.0634888	0.285998	0.304293
33.0491	0.0875409	0.0671956	0.419572	0.32206
33.558	0.123205	0.0599381	0.590508	0.287276
34.029	0.0160608	0.0596027	0.0769775	0.285668
34.5778	0.115861	0.0613116	0.555306	0.293858
35.0021	0.0932313	0.0620873	0.446846	0.297577
35.5341	0.118638	0.06564	0.568617	0.314604
36.063	0.0697842	0.0593609	0.334467	0.284509
36.5271	0.0571759	0.0551081	0.274037	0.264126
37.0495	0.0721595	0.0615574	0.345851	0.295037
37.5242	0.099809	0.0666307	0.478372	0.319352
38.0038	0.131406	0.0567078	0.629813	0.271793
38.5569	0.0957316	0.0561968	0.458829	0.269344
39.0067	0.124909	0.0694612	0.598673	0.332919
39.5232	0.0954987	0.0578765	0.457713	0.277394
40.024	0.0158604	0.06091	0.0760168	0.291934
40.5502	0.0719305	0.0633636	0.344753	0.303694
41.7072	0.134072	0.051799	0.64259	0.248266
42.0582	0.0941621	0.0451028	0.451307	0.216172
42.5465	0.113878	0.0617593	0.545802	0.296004
43.0338	0.0805497	0.0580183	0.386064	0.278074
43.5124	0.0895993	0.063308	0.429438	0.303427
44.0268	0.111908	0.0606125	0.536362	0.290508
44.5046	0.0954656	0.0558131	0.457554	0.267505
45.0427	0.13596	0.0557087	0.65164	0.267005
45.5456	0.0965738	0.0571452	0.462866	0.27389
46.0283	0.0956214	0.0658462	0.458301	0.315592
46.5062	0.0546011	0.0551423	0.261696	0.26429
47.0513	0.156799	0.0627229	0.751519	0.300623
47.5233	0.133228	0.0631247	0.638545	0.302549
48.0412	0.150559	0.0640263	0.721611	0.30687
48.5546	0.0758375	0.0607045	0.363479	0.290949
49.0566	0.070606	0.0723175	0.338405	0.346609
49.5443	0.0866406	0.0646839	0.415257	0.310021
50.0309	0.0774144	0.0701613	0.371037	0.336274
50.5281	0.0959345	0.0581003	0.459802	0.278467
51.0343	0.0867841	0.062386	0.415945	0.299008
52.1485	0.0870825	0.067431	0.417375	0.323188
52.5544	0.0778929	0.0619089	0.373331	0.296721
53.0598	0.122898	0.0682393	0.589032	0.327062
53.5031	0.10786	0.0536206	0.516961	0.256996
54.0572	0.134002	0.0792921	0.642253	0.380037
54.5643	0.0263165	0.0657211	0.126132	0.314993
55.011	0.0563185	0.0688414	0.269927	0.329948
55.5051	0.153419	0.0611506	0.735319	0.293087
56.0108	0.0654372	0.0612697	0.313632	0.293658
56.5333	0.0553548	0.0629424	0.265308	0.301675
57.0359	0.130231	0.0584761	0.624181	0.280268
57.5554	0.106176	0.0516445	0.508887	0.247526
58.0477	0.0276021	0.0509435	0.132293	0.244165
58.5547	0.0451405	0.0724495	0.216353	0.347241
59.0191	0.0978429	0.0591288	0.468949	0.283397
59.5407	0.122453	0.0548783	0.586901	0.263025
60.0431	0.160525	0.0598842	0.769376	0.287017
60.5091	0.143453	0.0697299	0.687551	0.334207
61.0536	0.106559	0.0626508	0.510726	0.300277
61.5048	0.0761485	0.0728278	0.36497	0.349055
62.5489	0.140959	0.0524645	0.675599	0.251456
63.0018	0.10724	0.0587273	0.513986	0.281472
63.5499	0.14691	0.0568613	0.70412	0.272529
64.0003	0.166163	0.0745653	0.796398	0.357382
64.519	0.126547	0.0647092	0.606522	0.310143
65.0039	0.161344	0.0631774	0.773302	0.302801
65.5229	0.1593	0.0632843	0.763503	0.303313
66.045	0.181676	0.0729662	0.870751	0.349718
66.5441	0.141203	0.0510363	0.676768	0.24461
67.0579	-0.0128614	0.0577922	-0.0616432	0.276991
67.5516	0.156739	0.0579616	0.751232	0.277803
68.0066	0.155597	0.0658824	0.745757	0.315766
68.5168	0.204154	0.0527198	0.978483	0.252679
69.0055	0.0863848	0.0606335	0.414031	0.290608
69.527	0.119608	0.0667833	0.573266	0.320084
70.0417	0.0683052	0.0592391	0.327378	0.283925
70.534	0.175221	0.0627926	0.83981	0.300957
71.0212	0.0807331	0.0676044	0.386943	0.324019
71.5097	0.104496	0.0687971	0.500836	0.329736
72.0295	0.144463	0.0662048	0.692393	0.317311
72.983	0.17277	0.0571551	0.828067	0.273937
73.0378	0.0916711	0.0666934	0.439368	0.319653
73.5586	0.15829	0.0672497	0.758664	0.322319
74.0005	0.215428	0.064687	1.03252	0.310036
74.5526	0.158984	0.066578	0.761991	0.3191
75.0495	0.173647	0.0752953	0.832269	0.360881
75.5284	0.131643	0.0653564	0.63095	0.313245
76.0062	0.117286	0.0652435	0.562135	0.312704
76.5603	0.117829	0.0574064	0.564741	0.275141
77.0106	0.167147	0.0529413	0.801114	0.253741
77.5027	0.169737	0.0620381	0.813529	0.297341
78.0768	0.121558	0.0601175	0.58261	0.288136
78.5921	0.212896	0.0498297	1.02038	0.238827
79.029	0.201804	0.0669906	0.967219	0.321077
79.5095	0.212585	0.0754551	1.01889	0.361647
80.0695	0.153507	0.0635868	0.735739	0.304763
80.5484	0.212896	0.067743	1.02038	0.324684
81.0303	0.206964	0.0568444	0.991953	0.272448
81.5952	0.114719	0.058047	0.549833	0.278212
82.0551	0.188979	0.073091	0.905754	0.350316
82.5538	0.170383	0.0655177	0.816625	0.314018
83.5908	0.202186	0.0586225	0.969052	0.28097
84.0832	0.285079	0.0561564	1.36635	0.26915
84.5173	0.112251	0.0675938	0.538003	0.323969
85.0557	0.252192	0.0721987	1.20872	0.346039
85.6193	0.217853	0.072645	1.04414	0.348178
86.0071	0.207429	0.0655258	0.99418	0.314057
86.5045	0.164773	0.0705443	0.789736	0.33811
87.0837	0.133847	0.0656603	0.641513	0.314701
87.5823	0.15083	0.0638981	0.722909	0.306255
88.0999	0.133524	0.0586733	0.639965	0.281214
88.6107	0.221086	0.064126	1.05964	0.307348
89.1601	0.213232	0.0672439	1.02199	0.322291
89.6539	0.231319	0.0572808	1.10868	0.27454
90.0639	0.189946	0.0643509	0.910388	0.308426
90.5201	0.166504	0.0620573	0.798033	0.297432
91.1135	0.235614	0.0624485	1.12927	0.299308
91.5823	0.231348	0.0567822	1.10882	0.27215
92.0212	0.188727	0.0652796	0.904544	0.312877
92.6342	0.181876	0.0686144	0.871709	0.32886
93.9628	0.159364	0.0588186	0.763811	0.28191
94.1082	0.175431	0.0536722	0.840817	0.257244
94.5111	0.189134	0.0523098	0.906494	0.250714
95.0125	0.249848	0.063703	1.19749	0.30532
95.601	0.199549	0.0719793	0.956414	0.344988
96.0494	0.188486	0.0665628	0.903387	0.319027
96.5302	0.277276	0.0555961	1.32895	0.266465
97.0899	0.239264	0.0666076	1.14676	0.319241
97.5459	0.21393	0.0626453	1.02534	0.300251
98.0419	0.224346	0.0654001	1.07526	0.313454
98.5524	0.233601	0.0856683	1.11962	0.410597
99.0076	0.244061	0.0667846	1.16975	0.32009
99.5184	0.187767	0.054223	0.899943	0.259884
100.01	0.183036	0.0695084	0.877267	0.333145
100.531	0.266257	0.0720622	1.27614	0.345385
101.026	0.251809	0.0519926	1.20689	0.249194
101.563	0.244541	0.0642605	1.17205	0.307992
102.068	0.240509	0.0615429	1.15273	0.294967
102.506	0.244987	0.0706162	1.17419	0.338455
103.017	0.296474	0.0727245	1.42096	0.348559
103.509	0.323449	0.0565995	1.55025	0.271274
104.301	0.295978	0.0595482	1.41859	0.285407
104.549	0.33891	0.0546679	1.62435	0.262016
105.036	0.207565	0.0629485	0.994831	0.301704
105.565	0.281675	0.0712115	1.35003	0.341308
106.018	0.260823	0.0651374	1.25009	0.312195
106.513	0.244637	0.056562	1.17251	0.271094
107.023	0.304007	0.059629	1.45707	0.285794
107.511	0.301179	0.074167	1.44351	0.355473
108.008	0.287251	0.0789998	1.37676	0.378636
108.506	0.250387	0.074226	1.20007	0.355756
109.017	0.31777	0.0636116	1.52303	0.304882
109.536	0.279211	0.0659119	1.33822	0.315907
110.026	0.325529	0.0636865	1.56022	0.305241
110.529	0.319409	0.0609689	1.53089	0.292216
111.027	0.342942	0.0537975	1.64368	0.257845
111.521	0.397057	0.0626449	1.90305	0.300249
112.018	0.289936	0.0824655	1.38962	0.395247
112.532	0.319574	0.0614152	1.53168	0.294355
113.039	0.362578	0.0686618	1.73779	0.329087
113.546	0.335838	0.0711062	1.60963	0.340803
114.691	0.321186	0.0705628	1.5394	0.338199
115.038	0.341062	0.0665084	1.63467	0.318766
115.507	0.299418	0.059921	1.43507	0.287194
116.037	0.33894	0.0635489	1.6245	0.304582
116.537	0.397388	0.0787063	1.90463	0.377229
117.03	0.338281	0.0686515	1.62134	0.329038
117.53	0.339587	0.0733061	1.6276	0.351347
118.057	0.331971	0.0680519	1.5911	0.326164
118.524	0.360019	0.0761636	1.72552	0.365042
119.021	0.406317	0.0752924	1.94743	0.360867
119.518	0.334193	0.0593433	1.60175	0.284425
120.021	0.354076	0.060616	1.69704	0.290525
120.52	0.373223	0.0655329	1.78881	0.314091
121.038	0.478649	0.0675779	2.2941	0.323892
121.504	0.453722	0.0627288	2.17463	0.300651
122.003	0.41935	0.0589166	2.00989	0.28238
122.561	0.424526	0.0712293	2.0347	0.341393
123.059	0.434447	0.0680279	2.08225	0.326049
123.561	0.467814	0.0722032	2.24217	0.346061
124.055	0.448573	0.0698925	2.14995	0.334986
125.147	0.412796	0.0679538	1.97848	0.325694
125.531	0.50756	0.0624985	2.43267	0.299547
126.016	0.475791	0.0639591	2.28041	0.306548
126.526	0.486732	0.0720362	2.33284	0.34526
127.014	0.440503	0.0618766	2.11127	0.296567
127.531	0.467706	0.0756693	2.24166	0.362673
128.044	0.478398	0.055425	2.2929	0.265645
128.504	0.447104	0.0641599	2.14291	0.30751
129.063	0.518879	0.0648946	2.48692	0.311031
129.515	0.449332	0.0612621	2.15359	0.293621
130.016	0.453524	0.0610245	2.17368	0.292483
130.566	0.474467	0.074017	2.27406	0.354754
131	0.527927	0.0561203	2.53029	0.268977
131.503	0.511627	0.0699165	2.45216	0.335101
132.058	0.576951	0.0622552	2.76525	0.298381
132.572	0.468996	0.0708928	2.24784	0.33978
133.005	0.59289	0.0672561	2.84165	0.32235
133.544	0.513637	0.0790785	2.4618	0.379013
134.015	0.52385	0.0679157	2.51074	0.325511
134.521	0.588397	0.0607533	2.82011	0.291183
135.592	0.55553	0.0674093	2.66259	0.323084
136.039	0.536327	0.0632978	2.57054	0.303378
136.552	0.475193	0.0731441	2.27754	0.35057
137.032	0.620448	0.0639791	2.97373	0.306643
137.528	0.541824	0.0646361	2.59689	0.309792
138.024	0.566137	0.0663427	2.71342	0.317972
138.551	0.631505	0.0646449	3.02672	0.309835
139.063	0.598633	0.0718337	2.86917	0.34429
139.553	0.612361	0.0650858	2.93497	0.311948
140.056	0.692978	0.0646885	3.32135	0.310043
140.514	0.640805	0.0726541	3.07129	0.348222
141.013	0.650812	0.0734014	3.11926	0.351803
141.515	0.673909	0.0670305	3.22996	0.321269
142.013	0.683866	0.0638773	3.27768	0.306155
142.515	0.629853	0.0632767	3.01881	0.303277
143.006	0.633421	0.0561945	3.03591	0.269333
143.515	0.782104	0.0753991	3.74852	0.361378
144.031	0.631518	0.0637359	3.02678	0.305478
144.53	0.65791	0.0673109	3.15328	0.322612
145.03	0.652973	0.0783103	3.12961	0.375331
146.072	0.67689	0.074303	3.24425	0.356125
146.57	0.728016	0.0666324	3.48929	0.319361
147.011	0.774355	0.0679652	3.71138	0.325748
147.55	0.726458	0.0705589	3.48182	0.33818
148.066	0.700752	0.0601472	3.35861	0.288278
148.523	0.726393	0.0725643	3.48151	0.347791
149.032	0.774364	0.0631803	3.71143	0.302815
149.517	0.7243	0.0639647	3.47148	0.306575
150.04	0.770493	0.082136	3.69287	0.393667
150.544	0.675051	0.0628304	3.23543	0.301138
151.04	0.761577	0.0713719	3.65014	0.342076
151.543	0.821895	0.0682588	3.93924	0.327156
152.058	0.872456	0.0692108	4.18157	0.331718
152.514	0.821522	0.0663906	3.93745	0.318202
153.024	0.854278	0.0611713	4.09444	0.293186
153.554	0.825795	0.0776878	3.95793	0.372348
154.016	0.895324	0.0602353	4.29117	0.2887
154.501	0.817429	0.0791009	3.91783	0.379121
155.06	0.866436	0.0674346	4.15272	0.323205
155.501	0.942257	0.0665758	4.51612	0.319089
156.472	0.905826	0.0761583	4.34151	0.365017
156.503	0.862227	0.0706557	4.13254	0.338644
157.044	0.885492	0.0809672	4.24405	0.388065
157.524	0.937683	0.0747536	4.49419	0.358285
158.039	1.04907	0.0568416	5.02804	0.272435
158.501	0.952303	0.071765	4.56427	0.343961
159.017	1.00915	0.0555183	4.83671	0.266092
159.554	0.98066	0.0734788	4.70018	0.352174
160.065	1.01336	0.065299	4.85689	0.31297
160.553	1.00063	0.091236	4.7959	0.437283
161.001	1.01412	0.0769078	4.86057	0.368609
161.559	0.975247	0.0748647	4.67423	0.358817
162.044	0.92735	0.0680201	4.44467	0.326012
162.549	1.12809	0.0718455	5.40678	0.344346
163.04	1.08459	0.0559228	5.1983	0.268031
163.536	1.06527	0.071144	5.1057	0.340984
164.017	1.14528	0.0713098	5.48918	0.341779
164.514	1.14764	0.0705853	5.50051	0.338306
165.03	1.04412	0.0517217	5.00433	0.247895
165.521	1.11859	0.0810081	5.36127	0.388262
166.017	1.14919	0.0790785	5.50791	0.379013
166.906	1.2474	0.0632066	5.97861	0.302941
167.002	1.27489	0.0665729	6.1104	0.319075
167.527	1.20248	0.0760429	5.76333	0.364464
168.005	1.1153	0.0787216	5.34547	0.377303
168.556	1.22856	0.0822261	5.88831	0.394099
169.035	1.26558	0.0837666	6.06574	0.401483
169.538	1.27205	0.0730699	6.09678	0.350215
170.02	1.23117	0.0683757	5.90083	0.327716
170.53	1.3409	0.0663421	6.42678	0.317969
171.049	1.2758	0.0682361	6.11474	0.327047
171.543	1.26909	0.0717907	6.08258	0.344084
172.039	1.35631	0.0838264	6.50061	0.401769
172.54	1.33556	0.067383	6.40117	0.322958
173.06	1.48099	0.08425	7.09821	0.4038
173.501	1.35317	0.0773741	6.48557	0.370844
174.05	1.38484	0.0534443	6.63738	0.256152
174.55	1.42781	0.0820392	6.84329	0.393204
175.055	1.49516	0.0597016	7.1661	0.286142
175.559	1.377	0.0683265	6.5998	0.32748
176.043	1.49717	0.0764234	7.17575	0.366288
177.279	1.52395	0.0661238	7.30412	0.316923
177.52	1.51253	0.0812125	7.24936	0.389241
178.06	1.58063	0.0750543	7.57574	0.359725
178.528	1.58612	0.0663691	7.60205	0.318099
179.058	1.56681	0.0899016	7.50951	0.430887
179.554	1.63103	0.0759491	7.81734	0.364014
180.014	1.65567	0.0683603	7.93543	0.327642
180.529	1.65774	0.0910916	7.94535	0.436591
181.011	1.71421	0.0505988	8.21597	0.242513
181.507	1.77394	0.0807739	8.50228	0.387139
182.002	1.69849	0.0585496	8.14066	0.280621
182.528	1.7786	0.071581	8.52459	0.343079
183.004	1.73984	0.0722293	8.33882	0.346186
183.507	1.77496	0.0790377	8.50716	0.378817
184.061	1.74568	0.0807395	8.36684	0.386974
184.51	1.8165	0.0649693	8.70626	0.31139
185.005	1.94316	0.0818836	9.31329	0.392457
185.55	2.01739	0.0584023	9.66909	0.279915
186.03	1.90985	0.0593865	9.15368	0.284632
186.526	1.98082	0.0693549	9.49382	0.332409
187.715	2.00158	0.0870693	9.59329	0.417312
188.007	2.10653	0.0719033	10.0963	0.344623
188.546	2.09272	0.080873	10.0301	0.387614
189.007	2.17518	0.0730342	10.4254	0.350044
189.521	2.10363	0.0765164	10.0824	0.366733
190.043	2.32564	0.0642928	11.1465	0.308147
190.541	2.27963	0.0828009	10.926	0.396854
191.039	2.27284	0.0828612	10.8934	0.397143
191.53	2.25846	0.067289	10.8245	0.322508
192.063	2.29978	0.0785091	11.0225	0.376284
192.514	2.36742	0.0786396	11.3467	0.376909
193.021	2.40043	0.0708223	11.505	0.339442
193.525	2.47303	0.0695465	11.8529	0.333327
194.019	2.53097	0.073867	12.1306	0.354035
194.529	2.5148	0.0705382	12.0531	0.33808
195.01	2.56242	0.0771636	12.2813	0.369835
195.559	2.59277	0.0706266	12.4268	0.338504
196.017	2.63415	0.0614009	12.6251	0.294287
196.504	2.7978	0.0798211	13.4095	0.382572
197.026	2.71825	0.067056	13.0282	0.321391
198.077	2.79897	0.0686005	13.4151	0.328793
198.504	2.88872	0.0856167	13.8453	0.41035
199.06	2.98304	0.0880675	14.2973	0.422096
199.553	3.04208	0.0802052	14.5803	0.384413
200.074	2.97426	0.0734819	14.2553	0.35219
200.56	3.04878	0.086449	14.6124	0.414339
201.011	3.10933	0.0770677	14.9026	0.369376
201.555	3.21358	0.0740769	15.4023	0.355041
202.022	3.21284	0.0748017	15.3987	0.358515
202.544	3.17175	0.0858781	15.2018	0.411603
203.04	3.33886	0.0787586	16.0027	0.37748
203.541	3.33981	0.0846319	16.0073	0.40563
204.035	3.35309	0.0766896	16.0709	0.367564
204.526	3.53207	0.070001	16.9288	0.335506
205.046	3.48366	0.0745061	16.6967	0.357098
205.503	3.51361	0.0726167	16.8403	0.348043
206.06	3.70681	0.0700623	17.7662	0.335799
206.553	3.74454	0.0778464	17.9471	0.373108
207.057	3.80265	0.0715352	18.2256	0.342859
207.539	3.86677	0.0723315	18.5329	0.346676
208.532	3.93483	0.0855744	18.8591	0.410147
209.031	4.0307	0.0853877	19.3186	0.409252
209.515	4.09944	0.0816481	19.6481	0.391329
210.009	4.15416	0.090426	19.9104	0.4334
210.502	4.2546	0.076786	20.3918	0.368025
211.06	4.26257	0.0649423	20.43	0.31126
211.557	4.35107	0.0676681	20.8541	0.324324
212.036	4.45012	0.0825515	21.3288	0.395659
212.541	4.52117	0.0698047	21.6694	0.334565
213.045	4.57836	0.0688085	21.9435	0.32979
213.542	4.64001	0.0865055	22.239	0.41461
214.027	4.68702	0.0801592	22.4643	0.384193
214.526	4.76539	0.0683433	22.8399	0.327561
215.02	4.81306	0.0774415	23.0684	0.371167
215.564	5.01694	0.0779568	24.0456	0.373637
216.049	4.96187	0.079551	23.7816	0.381278
216.543	5.09481	0.0653487	24.4188	0.313208
217.043	5.28201	0.0695166	25.316	0.333184
217.529	5.32121	0.0882168	25.5039	0.422812
218.048	5.27106	0.0799445	25.2635	0.383164
218.916	5.45574	0.0772514	26.1487	0.370256
219.032	5.60591	0.0908416	26.8684	0.435392
219.511	5.70066	0.0785457	27.3225	0.376459
220.012	5.76488	0.0781515	27.6303	0.37457
220.527	5.74834	0.0849409	27.5511	0.407111
221.044	5.92071	0.0851932	28.3772	0.40832
221.54	6.07604	0.0774259	29.1217	0.371092
222.037	6.10544	0.0810764	29.2626	0.388589
222.531	6.21282	0.0873396	29.7773	0.418608
223.032	6.28634	0.0789389	30.1296	0.378344
223.508	6.37492	0.0855399	30.5542	0.409982
224.002	6.53987	0.0790015	31.3448	0.378644
224.503	6.75539	0.0870243	32.3777	0.417096
225.022	6.66472	0.0693737	31.9431	0.332499
225.554	6.83115	0.0726801	32.7408	0.348346
226.027	6.92224	0.0755877	33.1774	0.362282
226.538	7.03849	0.0739421	33.7346	0.354395
227.028	7.25138	0.0747545	34.7549	0.358289
227.545	7.34004	0.0922533	35.1799	0.442158
228.053	7.45018	0.0817153	35.7078	0.391651
229.316	7.84099	0.0834058	37.5809	0.399753
229.542	7.70209	0.0646912	36.9151	0.310057
230.039	8.01083	0.0949152	38.3949	0.454916
230.553	8.00052	0.0809066	38.3455	0.387775
231.055	8.12995	0.0711578	38.9658	0.34105
231.557	8.30765	0.0754273	39.8175	0.361514
232.01	8.45129	0.0914397	40.506	0.438259
232.508	8.68155	0.0777028	41.6095	0.372419
233.016	8.65847	0.0833141	41.4989	0.399314
233.569	8.9019	0.082066	42.6657	0.393332
234.006	9.01888	0.0901228	43.2264	0.431947
234.505	9.20066	0.0674767	44.0976	0.323407
235.068	9.24914	0.0843322	44.33	0.404193
235.561	9.45285	0.0767724	45.3063	0.36796
236.018	9.63009	0.073967	46.1558	0.354514
236.569	9.8071	0.0892563	47.0042	0.427794
237.003	9.86542	0.0754927	47.2837	0.361827
237.502	10.1137	0.0832976	48.4736	0.399234
238.054	10.2283	0.0686811	49.023	0.32918
238.519	10.4834	0.0746173	50.2454	0.357631
239.791	10.9357	0.0732436	52.4134	0.351047
240.036	10.8622	0.0889299	52.0609	0.42623
240.539	11.1637	0.0594461	53.506	0.284918
241.007	11.2642	0.076704	53.9878	0.367632
241.548	11.5132	0.0772146	55.1814	0.37008
242.049	11.7084	0.0887016	56.1168	0.425136
242.529	11.8267	0.0816448	56.6839	0.391313
243.013	12.0144	0.0795904	57.5834	0.381466
243.518	12.1793	0.0877245	58.3738	0.420452
244.022	12.4447	0.0850006	59.6457	0.407397
244.526	12.5914	0.0830084	60.3491	0.397849
245.017	12.8722	0.085782	61.6949	0.411142
245.516	12.9095	0.0779297	61.8737	0.373507
246.001	13.1723	0.0735605	63.133	0.352566
246.547	13.4426	0.071589	64.4286	0.343117
247.039	13.6447	0.0623852	65.3971	0.299004
247.527	13.8746	0.0842512	66.4993	0.403805
248.023	14.0901	0.0833705	67.5322	0.399584
248.559	14.2479	0.105028	68.2884	0.503384
249.019	14.4798	0.0723612	69.3998	0.346818
250.145	14.9009	0.0882845	71.418	0.423136
250.524	15.1128	0.0763304	72.4335	0.365842
251.027	15.3462	0.0793393	73.5524	0.380263
251.528	15.5554	0.0883139	74.5552	0.423277
252.033	15.8597	0.0763133	76.0134	0.36576
252.54	16.0569	0.0789119	76.9588	0.378214
253.027	16.3065	0.0811322	78.1551	0.388856
253.58	16.4939	0.0992108	79.0531	0.475505
254.011	16.7618	0.0812357	80.3371	0.389352
254.517	17.0115	0.0874394	81.5339	0.419086
255.021	17.1922	0.0795791	82.4	0.381412
255.54	17.4884	0.0775591	83.8196	0.371731
256.069	17.7182	0.0990386	84.9208	0.474679
256.509	17.9209	0.0645642	85.8927	0.309448
257.054	18.2418	0.0880464	87.4304	0.421995
257.541	18.4843	0.0791538	88.5928	0.379374
258.025	18.7032	0.0675546	89.6422	0.323781
258.528	19.0519	0.083505	91.3134	0.400229
259.027	19.1378	0.0725934	91.7253	0.347931
259.524	19.4761	0.0903825	93.3467	0.433192
260.564	19.9158	0.0672525	95.4538	0.322333
261.051	20.1411	0.0990686	96.5335	0.474823
261.539	20.6153	0.0930437	98.8065	0.445947
262.041	20.7818	0.0948402	99.6043	0.454557
262.526	20.9381	0.0679207	100.354	0.325535
263.016	21.1569	0.0933706	101.402	0.447513
263.506	21.462	0.0884516	102.864	0.423937
264.002	21.8036	0.0680217	104.502	0.326019
264.51	22.0625	0.100029	105.743	0.479427
265.015	22.3672	0.0730755	107.203	0.350241
265.52	22.4764	0.100221	107.726	0.480348
266.042	22.9472	0.0757644	109.983	0.363129
266.504	23.1466	0.0979159	110.938	0.469298
267.028	23.3437	0.0912453	111.884	0.437327
267.543	23.5712	0.0829864	112.974	0.397743
268.016	24.0098	0.0863886	115.076	0.414049
268.51	24.1851	0.0876793	115.916	0.420236
269.011	24.5048	0.0842775	117.448	0.403931
269.549	24.7114	0.0874865	118.438	0.419312
270.047	24.949	0.0774632	119.577	0.371271
270.976	25.3507	0.0838826	121.503	0.402038
271.025	25.531	0.0844339	122.367	0.404681
271.527	25.7531	0.0902752	123.431	0.432677
272.018	25.9811	0.0931667	124.524	0.446536
272.508	26.262	0.0877557	125.87	0.420602
273.011	26.5654	0.080793	127.324	0.387231
273.549	26.7304	0.0674712	128.116	0.323381
274.057	27.0929	0.0928584	129.853	0.445059
274.554	27.2605	0.0832916	130.656	0.399206
275.003	27.5638	0.0827047	132.11	0.396393
275.5	27.742	0.0855515	132.964	0.410038
276.051	28.0464	0.0903663	134.423	0.433114
276.504	28.288	0.0924266	135.581	0.442989
277.008	28.5169	0.0759582	136.678	0.364058
277.519	28.8238	0.067678	138.149	0.324372
278.019	29.0817	0.0996365	139.385	0.477545
278.525	29.3466	0.0844396	140.655	0.404708
279.029	29.5966	0.0944012	141.853	0.452453
279.524	29.7692	0.0866435	142.68	0.415271
280.053	30.0104	0.0888808	143.836	0.425994
280.511	30.2091	0.0935578	144.788	0.44841
281.405	30.5239	0.0856489	146.297	0.410504
281.51	30.5117	0.100781	146.239	0.483032
282.008	30.8606	0.0786256	147.911	0.376843
282.505	31.0263	0.0851393	148.705	0.408062
283.001	31.2482	0.0856862	149.769	0.410683
283.557	31.5306	0.0902013	151.122	0.432323
284.062	31.6114	0.0764877	151.509	0.366596
284.505	31.7245	0.0874748	152.051	0.419256
285.008	32.0709	0.0804184	153.712	0.385435
285.579	32.296	0.0718109	154.791	0.34418
286.018	32.5553	0.0797203	156.033	0.382089
286.513	32.6147	0.0793396	156.318	0.380265
287.011	32.844	0.100987	157.417	0.484016
287.522	32.9947	0.0696844	158.139	0.333988
288.035	33.2339	0.0894691	159.286	0.428814
288.57	33.4057	0.103644	160.109	0.496752
289.009	33.5207	0.0808669	160.66	0.387585
289.501	33.7456	0.0973927	161.738	0.466791
290.062	33.7922	0.095556	161.962	0.457987
290.567	34.0102	0.0897873	163.006	0.430339
291.809	34.3469	0.100397	164.62	0.481192
292.056	34.4179	0.0893529	164.961	0.428257
292.555	34.5196	0.0923685	165.448	0.44271
293.056	34.778	0.0940809	166.686	0.450918
293.532	34.7965	0.083708	166.775	0.401202
294.062	34.9699	0.0680908	167.606	0.32635
294.534	35.159	0.0906859	168.513	0.434646
295.047	35.2715	0.0873191	169.052	0.418509
295.52	35.4029	0.10262	169.681	0.491843
296.072	35.4551	0.110753	169.932	0.530823
296.509	35.6133	0.0851898	170.69	0.408304
297.048	35.6468	0.0880805	170.851	0.422158
297.529	35.815	0.102469	171.657	0.491119
298.034	35.8468	0.0993441	171.809	0.476144
298.537	36.0499	0.0915578	172.783	0.438825
299.018	36.1344	0.0885562	173.188	0.424439
299.511	36.1584	0.0834615	173.303	0.40002
300.018	36.2794	0.0901335	173.882	0.431998
300.508	36.3778	0.082312	174.354	0.394511
301.015	36.4624	0.0943104	174.76	0.452018
302.19	36.3337	0.0775869	174.143	0.371864
302.51	36.4459	0.0919888	174.681	0.440891
303.015	36.6924	0.099553	175.862	0.477145
303.522	36.6089	0.0924897	175.462	0.443291
304.012	36.6612	0.105938	175.712	0.507749
304.505	36.715	0.0992572	175.97	0.475727
305.008	36.7594	0.0931102	176.183	0.446265
305.506	36.7878	0.0791092	176.319	0.37916
306.055	36.8687	0.0868096	176.707	0.416067
306.511	37.0311	0.0829522	177.485	0.397579
307.017	36.8759	0.105462	176.741	0.505466
307.572	36.8998	0.0712522	176.856	0.341503
308.023	36.9089	0.0966591	176.899	0.463275
308.537	37.0912	0.0934877	177.774	0.448074
309.044	36.9906	0.0709905	177.291	0.340248
309.536	37.0981	0.101726	177.806	0.487561
310.033	37.1751	0.104995	178.176	0.503229
310.515	36.9353	0.0842717	177.026	0.403904
311.025	37.1968	0.0971061	178.279	0.465417
311.527	37.139	0.0886356	178.003	0.424819
312.595	37.0964	0.099902	177.798	0.478817
313.04	37.0866	0.0921465	177.751	0.441646
313.529	37.1578	0.103994	178.093	0.498428
314.033	36.9526	0.0844843	177.109	0.404923
314.506	37.0785	0.0920133	177.713	0.441008
315.032	37.1142	0.0865548	177.884	0.414846
315.521	37.1521	0.0819799	178.065	0.392919
316.012	36.982	0.0942983	177.25	0.45196
316.54	37.0762	0.0950829	177.701	0.45572
317.045	36.9962	0.087888	177.318	0.421236
317.544	37.0178	0.0811866	177.421	0.389117
318.033	37.013	0.0955398	177.399	0.45791
318.538	36.8976	0.105697	176.846	0.506592
319.027	37.0878	0.0914535	177.757	0.438325
319.525	37.0494	0.0989981	177.573	0.474485
320.022	37.0285	0.0977352	177.473	0.468432
320.517	36.9817	0.0880011	177.249	0.421778
321.008	36.9048	0.0953826	176.88	0.457157
321.502	36.9386	0.0987159	177.042	0.473133
322.031	36.8883	0.0875199	176.801	0.419472
323.014	36.6057	0.100927	175.446	0.48373
323.505	36.5903	0.0844221	175.372	0.404624
324.001	36.5794	0.114776	175.32	0.550107
324.558	36.4958	0.0941486	174.92	0.451242
325.051	36.4277	0.102383	174.593	0.49071
325.547	36.3842	0.111388	174.385	0.533868
326.007	36.3419	0.0805666	174.182	0.386145
326.528	36.3122	0.107186	174.04	0.513727
327.037	36.2689	0.090617	173.832	0.434315
327.594	36.2693	0.097034	173.834	0.465072
328.016	36.2678	0.117639	173.827	0.563829
328.51	36.1205	0.105594	173.121	0.506098
329.018	36.1746	0.0910552	173.38	0.436416
329.521	36.033	0.096651	172.702	0.463236
330.008	35.9878	0.0790585	172.485	0.378917
330.508	35.9679	0.095352	172.39	0.45701
331.075	35.8997	0.101223	172.063	0.485149
331.514	35.8794	0.111988	171.965	0.536743
332.012	35.7235	0.0958677	171.218	0.459482
332.575	35.7915	0.0880527	171.544	0.422026
333.462	35.5079	0.093634	170.185	0.448776
333.52	35.4715	0.0716031	170.01	0.343184
334.006	35.3615	0.0931059	169.483	0.446245
334.5	35.352	0.101161	169.438	0.484854
335.065	35.324	0.0803686	169.304	0.385197
335.559	35.2112	0.110309	168.763	0.528696
336.041	35.229	0.105316	168.848	0.504768
336.517	35.1057	0.0915858	168.257	0.438959
337.051	35.0907	0.0975602	168.185	0.467593
337.552	35.0885	0.100392	168.175	0.481165
338.063	34.9835	0.0819868	167.671	0.392952
338.564	34.8936	0.100967	167.24	0.483923
339.042	34.9351	0.0886716	167.439	0.424992
339.54	34.8378	0.0986827	166.973	0.472974
340.039	34.7071	0.11496	166.347	0.550987
340.522	34.6167	0.0868827	165.913	0.416417
341.031	34.4578	0.101567	165.152	0.486798
341.557	34.615	0.0922914	165.905	0.442341
342.06	34.5233	0.100745	165.466	0.482857
342.544	34.225	0.0936629	164.036	0.448914
343.031	34.4361	0.0737514	165.048	0.353481
343.912	34.087	0.11724	163.374	0.561918
344.021	33.9954	0.101009	162.936	0.484125
344.521	34.0124	0.100953	163.017	0.483853
345.008	33.7768	0.0946419	161.888	0.453606
345.551	33.6965	0.102296	161.503	0.490293
346.055	33.7454	0.0954923	161.737	0.457682
346.53	33.7448	0.122585	161.735	0.587534
347.037	33.683	0.0981373	161.438	0.47036
347.536	33.5668	0.0959431	160.881	0.459843
348.037	33.6065	0.0980169	161.071	0.469782
348.517	33.3039	0.123959	159.621	0.594121
349.003	33.3726	0.101046	159.95	0.484302
349.501	33.169	0.123114	158.975	0.590069
349.753	33.2495	0.106391	159.361	0.509918